time_ms,ax,ay,az,gx,gy,gz
59,10.069,-0.299,1.207,-3.351,1.298,-0.26
109,10.018,-0.347,1.274,-3.298,1.74,0.328
159,9.992,-0.438,1.38,-3.397,1.618,-0.16
209,10.009,-0.395,1.521,-3.382,0.809,-0.557
260,9.98,-0.551,1.095,-3.267,0.214,-1.511
309,10.109,-0.263,1.272,-3.26,0.87,-1.038
359,10.073,-0.496,1.418,-3.244,0.298,-1.305
409,10.066,-0.309,1.032,-3.107,-0.534,-1.595
459,10.109,-0.285,1.471,-3.344,1.29,-1.145
509,10.061,-0.457,1.339,-3.252,0.145,-1.473
560,10.114,0.692,1.078,-3.336,-1.267,-3.16
609,10.035,-0.251,1.025,-3.328,3.779,0.817
659,9.947,-1.471,1.377,-3.176,-0.649,-1.863
709,10.155,1.008,1.454,-3.389,-1.412,-4.229
759,10.085,-0.663,0.833,-3.336,4.313,0.786
809,10.114,-0.786,1.787,-3.336,-1.534,-1.282
860,10.088,0.68,1.111,-3.137,1.176,-2.443
909,10.035,-0.742,1.15,-3.344,2.092,0.756
959,10.16,-0.436,1.475,-3.336,-0.687,-2.527
1009,10.052,0.16,1.011,-3.359,1.511,-0.519
1059,10.057,-0.685,1.499,-3.183,1.237,-0.183
1110,10.136,-0.319,1.245,-3.336,-0.008,-2.344
1160,10.09,-0.17,0.984,-3.29,1.229,-0.008
1209,10.071,-0.601,1.521,-3.237,0.534,-0.634
1259,10.064,-0.273,1.166,-3.168,0.389,-2.107
1309,9.999,-0.386,1.044,-3.565,1.305,-0.206
1359,10.018,-0.46,1.403,-3.237,0.13,-0.916
1410,10.035,-0.137,1.272,-3.183,0.626,-1.511
1460,10.023,-0.374,1.25,-3.366,1.275,-0.603
1510,10.052,-0.419,1.255,-3.313,0.458,-1.176
1560,10.059,-0.158,1.217,-3.237,0.74,-0.992
1610,10.052,-0.436,1.248,-3.305,1.0,-0.664
1660,10.069,-0.395,1.224,-3.397,0.237,-1.305
1711,10.002,-0.189,1.274,-3.244,0.702,-0.908
1760,10.081,-0.45,1.296,-3.168,0.855,-0.863
1810,10.03,-0.338,1.231,-3.282,0.557,-1.405
1860,9.994,-0.251,1.248,-3.122,0.855,-0.771
1910,10.117,-0.359,1.291,-3.534,0.863,-0.931
1960,10.09,-0.333,1.152,-3.321,0.71,-1.076
2011,10.126,-0.342,1.221,-3.176,0.695,-0.603
2060,10.033,-0.39,1.327,-3.275,0.756,-1.046
2110,10.085,-0.338,1.176,-3.344,0.817,-1.046
2160,10.09,-0.328,1.253,-3.405,0.863,-0.603
2210,10.097,-0.4,1.214,-3.313,0.748,-1.305
2260,10.073,-0.28,1.224,-3.511,0.87,-1.008
2311,10.047,-0.295,1.224,-3.298,0.794,-0.916
2360,10.102,-0.352,1.279,-3.206,0.725,-1.008
2410,10.006,-0.333,1.267,-3.206,0.863,-1.198
2460,10.061,-0.196,0.922,-3.26,1.023,-0.878
2510,10.081,-0.242,1.42,-3.511,0.496,-0.298
2561,10.09,-0.331,1.372,-3.344,1.092,-0.84
2611,10.004,0.86,2.936,-7.176,-0.252,1.298
2660,10.073,-0.364,1.305,-2.855,-0.924,-4.328
2710,10.097,0.101,1.257,-3.252,2.55,0.405
2760,10.109,-0.496,1.411,-3.321,0.847,-2.435
2810,10.088,-0.383,1.439,-3.237,0.634,0.107
2861,10.05,-0.23,0.891,-3.183,0.076,-0.832
2911,10.083,-0.771,1.293,-3.237,0.802,1.282
2961,10.093,-0.517,1.257,-3.313,1.504,-1.496
3011,10.148,-0.323,0.376,-3.427,1.389,-2.969
3061,10.076,-0.11,1.248,-3.053,2.756,-1.191
3111,9.899,-0.18,1.727,-3.397,0.397,1.656
3162,10.059,-0.419,1.195,-3.069,1.748,-1.412
3211,9.982,-0.41,1.65,-3.336,0.145,-0.931
3261,10.085,-0.35,0.654,-3.344,0.641,0.099
3311,10.093,-0.211,1.075,-3.076,2.908,-0.832
3361,10.002,-0.563,1.255,-2.847,3.183,-1.656
3411,10.009,-0.163,1.3,9.702,0.305,-2.42
3462,10.052,-0.747,0.994,37.496,-0.809,1.176
3511,10.047,0.101,1.885,-0.382,2.092,-3.099
3561,10.129,0.113,0.853,-2.427,1.092,-3.115
3611,10.04,-0.819,1.703,-3.084,4.061,-2.198
3661,10.162,-0.206,1.538,24.962,0.58,-1.229
3712,10.076,0.125,1.198,58.015,0.206,5.389
3762,10.047,-0.505,2.223,34.26,-6.229,1.931
3811,10.294,-0.738,1.281,-2.504,-1.916,-1.275
3861,10.15,-0.182,0.793,-3.13,3.168,-3.031
3911,10.026,-0.184,1.597,-2.229,4.412,-1.771
3961,10.057,0.527,1.969,-3.321,-0.015,-0.718
4012,10.131,-0.661,1.164,-3.359,-2.87,-1.878
4062,10.076,-1.027,1.377,-3.16,0.71,-3.374
4111,10.152,-0.05,0.85,-3.099,1.305,-6.023
4161,10.076,0.12,1.262,-3.527,0.763,-1.076
4211,10.148,-0.266,1.499,-3.412,1.84,-1.298
4261,10.071,-0.484,1.293,-3.55,-0.466,0.679
4312,10.32,-0.62,1.332,-3.298,1.061,-0.298
4361,9.973,-0.156,1.506,-3.168,-0.45,-2.718
4411,10.014,-0.211,1.341,-3.534,-0.557,1.55
4461,10.162,0.074,0.448,-3.237,0.824,-1.863
4511,9.913,-0.592,1.679,-3.13,4.496,-2.313
4561,9.951,0.192,2.201,-3.443,-0.198,-1.779
4612,10.167,0.05,0.941,-3.137,-0.687,-0.664
4661,9.978,-0.115,1.382,-3.389,0.313,-0.832
4711,10.272,0.843,0.984,-3.794,0.664,-0.061
4761,9.772,-0.172,0.103,-3.74,1.74,-3.16
4811,10.109,0.146,2.474,-4.038,1.443,-1.344
4861,10.164,-0.4,0.007,-3.527,-1.58,-2.397
4912,10.071,-0.388,1.633,-3.412,0.122,-0.893
4961,10.093,-0.309,0.833,-3.244,1.519,-1.885
5011,10.057,-0.616,1.76,-3.237,-1.374,-2.885
5061,10.061,0.072,1.047,-3.137,1.008,-2.443
5111,10.042,-0.151,1.37,-3.305,1.992,-1.885
5161,10.03,0.043,0.984,-3.397,1.618,0.947
5212,10.1,-1.027,1.111,-3.168,3.756,-3.763
5261,10.028,-0.548,2.299,-3.595,1.29,-1.443
5311,10.241,0.266,0.484,-3.321,-0.947,-1.321
5361,10.15,0.331,0.821,-3.29,2.237,-0.099
5411,10.093,-0.407,1.071,-3.069,-0.305,0.672
5462,10.382,-0.206,1.358,-3.237,-3.863,2.198
5512,11.58,-0.046,-1.677,-3.191,3.45,3.565
5561,9.808,0.393,1.66,-2.412,10.473,-0.221
5611,9.992,-0.148,1.7,-5.0,1.473,0.397
5661,9.973,0.228,1.648,-18.137,-0.786,-3.687
5711,9.935,-1.02,2.175,-6.649,-3.58,-1.641
5762,10.133,-0.177,0.089,-2.924,-4.405,-4.687
5812,10.126,0.153,0.908,-3.237,0.855,-3.412
5862,10.038,0.671,1.521,-3.366,3.389,4.107
5912,9.97,-1.099,1.209,-3.504,1.221,0.748
5962,10.04,-0.398,1.511,-3.366,-0.511,-3.618
6012,10.054,-0.299,1.162,-3.122,-1.466,-4.924
6063,9.99,0.766,1.597,-3.313,1.221,-0.16
6112,10.157,-0.752,1.001,-3.229,3.206,3.069
6162,10.081,-0.522,1.509,-3.427,1.573,-1.069
6212,10.076,-0.268,1.377,-3.099,-1.489,-2.359
6262,10.136,-0.398,1.063,-3.198,1.0,-4.153
6312,10.162,0.271,1.269,-3.496,2.863,-3.466
6363,10.085,0.45,1.049,-3.656,0.443,7.229
6412,10.157,-0.917,1.174,-3.649,-1.702,4.802
6462,9.879,-1.447,1.736,-4.321,-2.031,-4.282
6512,10.627,0.457,0.498,-3.87,-7.046,-11.679
6562,9.853,1.576,-0.395,-6.847,5.458,0.679
6612,9.853,-0.438,2.259,-3.832,8.58,14.634
6663,9.839,-2.27,1.439,-2.107,3.351,0.954
6712,9.846,-1.054,1.641,-3.176,-3.252,-11.053
6762,10.1,1.557,0.424,-3.092,-4.466,-4.748
6812,10.018,-0.206,0.853,-2.832,9.458,7.252
6862,10.023,-1.456,1.928,-2.527,1.366,2.038
6913,10.073,0.189,1.772,-2.939,-0.191,-3.13
6963,10.133,-0.232,2.153,-3.328,-4.87,-0.55
7012,10.05,-0.702,-0.225,-2.031,-5.26,-3.824
7062,10.047,-0.436,0.479,-3.221,3.656,-5.344
7112,10.057,0.711,2.086,-3.061,4.206,0.069
7162,10.162,-0.319,0.74,-3.458,-0.351,0.908
7213,10.129,-0.57,0.798,-3.977,5.977,1.252
7263,10.023,-0.714,1.667,-5.84,6.0,-3.221
7313,9.97,-0.848,1.899,-2.137,0.435,-7.336
7363,10.174,-0.261,1.018,-1.481,-0.817,-10.84
7413,9.76,1.253,1.722,-7.023,-1.321,-5.664
7463,10.038,0.151,0.951,-2.626,-3.878,-0.565
7514,9.985,-0.331,1.516,10.992,-3.794,2.656
7563,10.138,-0.189,1.655,19.115,-3.519,1.855
7613,10.148,-0.342,1.583,-5.42,-9.618,3.229
7663,10.217,-0.707,0.201,0.977,-7.321,-3.305
7713,11.731,0.369,0.51,-10.901,-2.626,-3.656
7763,10.627,-0.019,0.651,-27.672,-0.641,-3.237
7814,11.012,0.17,0.412,-8.321,1.511,0.511
7863,10.723,-0.144,0.927,12.069,2.145,1.336
7913,12.643,0.007,1.336,-3.321,-1.221,2.824
7963,12.536,-0.326,1.08,-2.336,-6.924,-0.42
8013,13.189,-0.479,1.138,-6.878,-9.802,-8.076
8064,12.167,-0.249,0.553,-12.137,-7.695,-9.328
8114,13.594,0.951,0.745,8.779,-3.42,-3.962
8163,12.787,-0.132,-0.254,-15.603,2.748,3.519
8213,12.83,-0.675,-0.275,22.168,14.954,-2.901
8263,11.178,-1.09,0.606,22.092,18.931,-9.695
8313,11.992,-0.845,0.656,21.359,18.42,-15.038
8364,11.11,-0.496,0.113,18.611,17.473,-18.656
8414,10.876,0.618,0.592,33.008,18.168,-10.855
8463,10.224,0.728,-0.165,43.924,23.55,0.023
8513,8.66,1.341,-1.413,85.817,29.359,22.771
8563,7.925,0.184,0.987,111.687,34.893,35.489
8613,8.469,-0.759,1.83,102.71,22.595,35.29
8664,8.186,-0.968,2.589,68.221,7.687,25.901
8713,7.956,-0.395,0.879,64.473,-7.176,20.115
8763,7.508,0.163,1.456,50.496,-11.458,24.786
8813,7.954,-0.515,1.095,40.405,-22.244,22.656
8863,7.518,0.383,1.073,29.26,-27.16,32.053
8913,7.647,-0.692,1.456,29.878,-31.672,36.427
8964,7.003,-2.036,1.219,25.443,-42.695,26.191
9013,6.799,-1.492,0.103,31.0,-42.344,12.763
9105,7.056,-1.336,-0.575,11.191,-30.603,-19.008
9155,7.513,-0.752,-0.417,47.664,-20.58,-22.649
9205,8.035,0.465,-0.386,45.244,-10.901,-19.191
9255,8.874,0.038,0.402,59.977,-4.099,-11.931
9306,9.432,0.16,0.036,55.481,-1.0,-5.298
9355,9.702,-0.577,0.62,51.939,-0.382,-5.473
9405,9.427,-0.431,0.62,35.702,3.267,-7.733
9455,9.379,-0.405,0.771,29.687,2.794,-11.374
9505,9.58,-0.122,1.188,28.702,0.55,-8.718
9555,10.064,-0.271,0.477,9.13,-2.641,-9.351
9606,9.949,-0.242,1.207,3.748,-5.588,-9.031
9655,10.39,0.201,0.505,17.206,-4.504,-7.641
9705,10.447,-0.12,0.508,-0.824,-3.229,-3.985
9755,10.445,-0.228,0.527,4.916,-0.733,-1.168
9805,10.454,-0.45,0.632,0.489,0.893,-2.397
9856,10.622,-0.216,0.939,12.076,0.733,-3.382
9906,10.816,-0.06,0.493,-7.015,3.756,-1.069
9955,10.895,0.335,0.541,-3.71,5.382,1.931
10005,11.043,-0.251,0.685,-8.366,8.313,4.534
10055,10.811,0.029,0.671,-1.634,8.634,3.687
10105,10.998,-0.479,0.709,3.977,9.756,4.679
10156,10.658,-0.39,1.087,-11.847,7.29,-0.878
10206,10.399,-0.342,0.953,9.313,6.061,-0.969
10255,10.344,-0.4,0.836,0.824,3.618,-4.756
10305,9.875,-0.292,0.625,-6.16,5.573,-6.244
10355,10.598,0.146,0.719,14.115,5.962,-7.183
10405,10.828,-0.352,1.102,1.878,7.031,-6.878
10456,10.466,-0.105,1.061,1.55,5.695,-9.145
10505,10.323,-0.613,1.157,4.206,3.351,-11.977
10555,10.102,0.144,0.965,-9.313,0.656,-12.015
10605,10.272,-0.364,0.963,13.244,0.595,-10.992
10655,9.949,0.036,0.627,-9.321,1.473,-8.397
10705,9.954,0.01,0.838,9.389,2.153,-6.237
10756,9.779,-0.11,0.872,12.504,3.885,-0.389
10805,10.052,0.072,1.063,22.023,3.336,0.435
10855,10.038,-0.433,1.075,0.252,2.924,1.962
10905,10.232,-0.041,1.073,-4.244,1.985,-0.901
10955,10.282,-0.639,0.936,-2.336,1.832,-3.992
11005,10.246,0.256,1.095,2.573,2.046,-3.244
11056,10.55,-0.455,0.901,4.466,3.237,-4.42
11105,10.394,0.228,0.944,-12.0,4.137,-2.618
11155,10.368,-0.093,0.968,2.328,4.725,-2.656
11205,10.028,-0.053,0.936,-6.328,5.061,-0.351
11255,9.961,-0.163,1.403,-1.382,3.969,-3.763
11305,10.038,0.074,1.145,-9.611,1.084,-0.45
11356,10.021,0.108,1.25,3.962,-0.878,0.237
11405,10.227,-0.194,1.166,-1.664,-0.885,1.725
11455,10.179,-0.309,1.13,-13.71,-1.718,1.824
11505,10.141,-0.266,0.941,-15.603,-0.107,-0.557
11555,10.107,0.0,0.905,-3.588,0.107,1.107
11606,10.303,0.216,1.13,2.435,-0.244,2.473
11656,10.09,-0.364,1.054,-4.046,-0.496,4.672
11705,10.148,-0.187,1.171,-2.656,-0.954,2.206
11755,10.174,-0.436,1.099,0.397,-2.542,2.107
11805,10.181,-0.206,0.915,-10.618,-2.26,-0.282
11855,10.296,-0.247,1.245,-19.26,-3.947,1.42
11906,10.107,-0.359,0.845,-21.053,-5.305,1.656
11956,10.212,-0.51,0.733,-4.885,-4.168,-0.481
12006,9.925,-0.247,0.872,5.237,-6.137,0.069
12056,9.884,-0.038,0.841,21.084,-7.756,-1.275
12106,10.018,-0.163,0.81,9.55,-8.107,2.687
12156,10.325,-0.299,0.445,-1.176,-7.779,2.794
12207,10.229,-0.311,0.357,-16.046,-4.198,6.412
12256,9.982,-0.975,0.457,-22.321,-3.26,4.229
12306,9.915,-0.218,0.168,-20.374,-0.145,1.336
12356,9.932,-0.232,1.032,-23.458,-1.092,7.443
12406,9.875,-1.037,0.45,-19.847,-6.069,7.42
12456,10.04,-0.754,0.024,-19.29,-3.176,3.87
12507,10.181,-0.62,0.079,-16.046,1.282,4.794
12556,10.164,-0.608,0.393,-12.061,2.534,6.42
12606,10.289,-0.747,0.486,-9.237,3.252,8.855
12656,10.454,-0.879,0.362,-6.748,3.71,10.076
12706,10.476,-1.042,0.453,-4.954,3.679,10.29
12756,10.605,-1.198,0.362,-3.595,3.725,9.763
12807,10.591,-1.186,0.357,-3.183,3.725,9.321
12856,10.605,-1.296,0.445,-3.092,4.099,8.809
12906,10.478,-1.38,0.448,-3.908,4.473,8.176
12956,10.351,-1.437,0.551,-5.29,4.885,7.588
13006,10.272,-1.43,0.563,-7.122,4.641,6.687
13057,10.112,-1.514,0.527,-9.855,4.031,5.817
13107,9.927,-1.566,0.745,-13.084,3.214,5.061
13156,9.798,-1.545,0.661,-16.412,2.031,4.527
13206,9.717,-1.693,0.654,-20.198,0.908,4.008
13256,9.599,-1.645,0.678,-23.519,-0.046,3.122
13306,9.417,-1.823,0.577,-26.855,-0.527,1.87
13357,9.446,-1.753,0.457,-29.344,-0.802,0.359
13407,9.42,-1.772,0.45,-31.351,-1.198,-1.489
13457,9.377,-1.712,0.342,-32.527,-0.985,-2.695
13507,9.506,-1.729,0.249,-32.634,-0.649,-3.618
13557,9.659,-1.605,0.206,-32.168,0.168,-4.405
13607,9.709,-1.684,0.177,-30.481,1.107,-5.336
13658,9.774,-1.552,0.177,-28.527,2.183,-6.053
13707,9.956,-1.571,0.115,-26.176,3.756,-6.863
13757,10.085,-1.411,0.093,-23.809,4.931,-7.58
13807,10.215,-1.351,0.069,-21.244,6.244,-7.649
13857,10.311,-1.277,0.242,-18.786,7.176,-7.282
13907,10.406,-1.195,0.319,-16.817,7.435,-6.931
13958,10.493,-1.2,0.35,-14.832,7.763,-6.542
14007,10.406,-1.128,0.386,-13.458,8.153,-6.443
14057,10.478,-1.118,0.433,-12.618,8.511,-6.55
14107,10.409,-1.02,0.544,-12.145,8.939,-6.153
14157,10.385,-0.951,0.532,-12.359,9.29,-5.359
14208,10.277,-0.836,0.627,-13.183,8.931,-4.244
14258,10.157,-0.819,0.826,-14.618,8.206,-2.603
14307,10.054,-0.884,0.805,-16.557,6.664,-0.992
14357,10.006,-0.855,0.874,-19.389,4.893,0.618
14407,9.839,-0.843,0.972,-22.389,3.053,2.092
14457,9.712,-0.901,0.881,-25.26,1.015,3.718
14508,9.645,-0.905,0.843,-28.351,-0.466,5.496
14558,9.611,-0.929,0.817,-31.145,-1.832,7.351
14607,9.537,-1.006,0.656,-33.374,-2.786,8.954
14657,9.587,-1.133,0.592,-35.221,-3.336,10.328
14707,9.628,-1.224,0.505,-36.542,-3.603,10.695
14757,9.664,-1.363,0.388,-37.183,-4.092,10.756
14808,9.791,-1.521,0.297,-37.359,-3.947,10.046
14857,9.894,-1.624,0.266,-36.908,-3.802,8.733
14907,10.03,-1.672,0.184,-35.733,-3.466,7.153
14957,10.018,-1.82,-0.005,-33.656,-3.099,5.427
15007,10.162,-1.844,-0.098,-31.046,-1.992,3.153
15057,10.243,-1.887,-0.086,-27.443,-0.382,0.74
15108,10.299,-1.921,-0.254,-23.389,2.0,-2.145
15157,10.241,-1.89,-0.216,-19.061,4.618,-4.679
15207,10.289,-1.823,-0.187,-14.565,7.527,-6.954
15257,10.26,-1.708,-0.132,-10.618,9.939,-9.153
15307,10.181,-1.602,0.005,-7.015,11.756,-10.649
15357,10.143,-1.447,0.172,-4.29,12.847,-11.885
15408,10.109,-1.274,0.295,-2.282,13.214,-12.313
15457,10.033,-1.183,0.383,-1.282,13.191,-12.275
15507,9.985,-1.035,0.536,-1.366,12.893,-11.771
15557,9.889,-0.989,0.534,-2.084,12.489,-10.863
15607,9.915,-0.848,0.723,-3.901,11.939,-9.275
15657,9.76,-0.68,0.829,-6.641,11.084,-7.42
15708,9.745,-0.616,1.051,-10.29,9.786,-4.809
15757,9.695,-0.587,1.142,-14.87,7.84,-2.015
15807,9.721,-0.546,1.241,-20.282,5.374,0.985
15857,9.676,-0.606,1.248,-26.473,2.603,4.015
15907,9.769,-0.714,1.346,-32.511,-0.458,6.29
15958,9.82,-0.802,1.19,-38.603,-3.527,8.053
16008,9.899,-0.968,1.099,-44.115,-6.565,9.206
16057,10.035,-1.111,0.896,-48.053,-8.725,9.779
16107,10.064,-1.186,0.697,-50.992,-10.29,9.832
16157,10.081,-1.262,0.388,-52.206,-10.656,9.29
16207,10.255,-1.437,0.108,-51.863,-9.893,8.122
16258,10.289,-1.55,0.014,-49.672,-8.313,6.863
16308,10.327,-1.566,-0.132,-46.099,-6.191,5.061
16358,10.308,-1.557,-0.175,-41.076,-3.786,3.328
16408,10.301,-1.583,-0.261,-35.359,-1.611,1.511
16458,10.234,-1.643,-0.34,-28.771,0.58,-0.221
16508,10.186,-1.571,-0.268,-21.824,2.954,-1.832
16559,10.076,-1.473,-0.237,-15.008,5.198,-2.519
16608,10.011,-1.435,-0.232,-8.641,7.786,-3.183
16658,9.889,-1.344,-0.177,-3.015,9.939,-3.359
16708,9.834,-1.392,-0.065,1.809,11.672,-3.244
16758,9.748,-1.394,0.12,5.45,12.641,-3.252
16808,9.714,-1.329,0.295,7.786,12.931,-3.427
16859,9.657,-1.241,0.426,8.718,12.55,-3.504
16908,9.652,-1.279,0.541,8.229,11.924,-3.534
16958,9.69,-1.212,0.592,6.206,11.374,-3.191
17008,9.779,-1.147,0.711,3.855,10.84,-2.908
17058,9.779,-1.133,0.886,-0.084,10.153,-2.0
17108,9.87,-1.078,0.891,-5.053,8.878,-1.16
17159,9.961,-1.152,1.027,-10.725,6.947,0.221
17208,9.949,-1.154,1.157,-16.908,4.618,0.985
17258,10.069,-1.312,1.193,-23.374,1.916,1.45
17308,10.133,-1.336,1.097,-29.557,-0.74,0.947
17358,10.184,-1.358,1.042,-35.298,-3.053,0.168
17409,10.239,-1.411,0.826,-40.221,-4.458,-1.214
17459,10.284,-1.356,0.733,-43.885,-5.366,-2.26
17508,10.342,-1.236,0.52,-46.168,-5.588,-3.328
17558,10.323,-1.231,0.438,-47.099,-5.382,-3.618
17608,10.291,-1.126,0.362,-46.641,-4.908,-3.45
17658,10.275,-1.118,0.23,-45.313,-4.237,-2.992
17709,10.152,-1.056,0.148,-42.511,-3.366,-2.206
17759,10.141,-1.001,0.139,-38.969,-2.679,-1.458
17809,10.004,-1.023,0.127,-35.092,-1.534,-0.824
17859,9.947,-1.121,0.043,-30.107,-0.595,-0.42
17909,9.908,-0.989,0.019,-24.771,0.382,0.298
17959,9.827,-1.051,0.105,-19.588,1.42,0.924
18010,9.7,-1.061,0.05,-14.084,2.351,1.756
18059,9.719,-1.02,0.062,-8.786,3.229,2.954
18109,9.743,-1.09,-0.074,-3.901,3.878,4.198
18159,9.769,-1.116,0.036,0.725,4.756,5.427
18209,9.76,-1.205,0.122,4.855,6.023,6.252
18259,9.76,-1.346,0.12,7.977,7.122,6.855
18310,9.872,-1.411,0.223,10.107,8.29,6.42
18359,9.841,-1.48,0.328,10.954,9.237,5.473
18409,9.987,-1.672,0.433,10.702,9.718,4.176
18459,10.131,-1.638,0.56,8.947,9.863,2.473
18509,10.117,-1.617,0.738,5.863,9.359,1.069
18560,10.172,-1.626,0.802,1.573,8.305,-0.053
18610,10.248,-1.609,0.927,-3.656,7.145,-1.321
18659,10.152,-1.638,0.982,-9.244,5.42,-2.626
18709,10.143,-1.669,0.958,-15.351,3.687,-3.908
18759,10.143,-1.679,1.008,-21.573,1.962,-5.527
18809,10.119,-1.569,1.013,-27.656,0.198,-7.321
18860,10.083,-1.554,0.872,-32.855,-1.305,-8.802
18910,10.069,-1.372,0.934,-37.237,-2.679,-9.885
18959,10.071,-1.253,0.819,-40.504,-3.672,-10.176
19009,10.006,-1.08,0.599,-42.389,-4.26,-9.908
19059,9.97,-0.96,0.534,-42.916,-4.641,-9.153
19109,9.879,-0.872,0.35,-42.008,-4.771,-7.824
19160,9.786,-0.824,0.232,-39.847,-4.458,-6.046
19209,9.844,-0.754,0.261,-36.382,-4.076,-4.198
19259,9.731,-0.793,0.132,-32.198,-3.221,-2.176
19309,9.906,-0.754,-0.041,-26.863,-1.931,-0.13
19359,9.805,-0.783,0.005,-20.992,-0.557,1.542
19409,9.894,-0.793,-0.036,-15.176,0.794,3.374
19460,9.915,-0.831,0.046,-9.397,2.099,4.924
19509,10.045,-0.843,0.041,-4.26,3.557,6.374
19559,10.011,-0.917,0.122,0.58,4.351,7.672
19609,10.083,-1.037,0.189,4.382,5.176,8.84
19659,10.083,-1.176,0.153,7.305,5.84,9.58
19709,10.155,-1.241,0.319,9.351,6.221,10.008
19760,10.133,-1.442,0.436,10.023,6.672,9.672
19809,10.205,-1.609,0.493,9.496,7.0,8.397
19859,10.148,-1.686,0.479,8.145,7.031,6.679
19909,10.061,-1.782,0.594,5.611,7.382,4.366
19959,10.184,-1.811,0.671,1.954,7.13,2.092
20009,10.028,-1.787,0.81,-2.504,6.321,-0.191
20060,9.987,-1.789,0.862,-7.527,5.443,-2.229
20109,9.982,-1.751,0.85,-12.702,3.885,-3.702
20159,9.923,-1.691,0.874,-18.244,2.351,-5.267
20209,9.954,-1.636,0.91,-23.275,0.649,-6.618
20259,9.846,-1.609,0.728,-27.74,-0.443,-7.557
20310,9.841,-1.504,0.618,-31.29,-1.107,-8.198
20360,9.803,-1.389,0.601,-33.947,-1.481,-8.725
20409,9.872,-1.286,0.508,-35.863,-1.344,-8.84
20459,9.791,-1.159,0.484,-36.664,-1.015,-8.29
20509,9.743,-1.154,0.491,-36.565,-0.824,-7.305
20559,9.824,-0.977,0.386,-35.985,-1.0,-6.183
20610,9.918,-0.977,0.414,-34.504,-1.145,-4.947
20660,9.966,-1.004,0.359,-32.565,-1.496,-3.42
20710,10.057,-0.932,0.237,-29.733,-1.534,-1.817
20760,10.085,-0.879,0.153,-26.603,-1.145,-0.443
20810,10.097,-0.915,0.077,-23.084,-0.275,0.618
20860,10.176,-0.98,0.005,-19.13,0.985,1.802
20911,10.148,-1.011,0.024,-15.107,2.794,2.58
20960,10.243,-1.049,0.12,-11.42,3.992,3.198
21010,10.239,-1.054,0.184,-7.679,4.954,3.282
21060,10.241,-1.111,0.232,-4.931,5.595,3.458
21110,10.205,-1.13,0.263,-2.687,5.924,3.588
21160,10.198,-1.164,0.299,-0.863,6.122,4.069
21211,10.054,-1.193,0.445,0.275,6.71,4.557
21260,10.097,-1.207,0.414,0.298,7.053,5.061
21310,9.954,-1.262,0.517,-0.466,7.275,5.099
21360,9.97,-1.308,0.551,-2.015,7.137,5.313
21410,9.92,-1.413,0.618,-4.603,6.779,5.191
21460,9.858,-1.403,0.771,-8.069,5.809,5.229
21511,9.815,-1.487,0.728,-12.305,4.473,4.802
21560,9.776,-1.597,0.788,-16.809,3.008,4.122
21610,9.769,-1.609,0.829,-21.656,1.794,3.221
21660,9.776,-1.691,0.786,-26.412,0.313,1.901
21710,9.791,-1.756,0.707,-31.16,-0.573,0.641
21761,9.846,-1.787,0.635,-34.786,-1.237,-1.137
21811,9.824,-1.732,0.505,-37.626,-1.74,-2.924
21860,9.944,-1.758,0.443,-39.588,-1.718,-4.588
21910,9.901,-1.724,0.283,-40.55,-1.481,-5.985
21960,10.028,-1.538,0.302,-40.252,-0.885,-7.008
22010,10.054,-1.504,0.211,-38.786,-0.191,-7.931
22061,10.097,-1.415,0.141,-36.71,0.802,-8.221
22111,10.152,-1.284,0.127,-33.511,1.969,-8.565
22161,10.181,-1.186,0.096,-30.214,3.0,-8.702
22211,10.138,-1.116,0.031,-26.053,4.214,-8.29
22261,10.141,-0.968,0.055,-22.092,5.733,-7.321
22311,10.188,-0.891,0.16,-18.076,6.885,-5.656
22362,10.114,-0.831,0.182,-14.702,7.908,-4.282
22411,10.102,-0.757,0.275,-11.595,8.725,-2.305
22461,10.107,-0.776,0.369,-9.458,9.13,-0.466
22511,10.011,-0.877,0.52,-8.107,9.015,1.267
22561,10.018,-0.829,0.596,-7.779,8.511,2.702
22611,9.966,-0.798,0.675,-8.481,7.771,4.092
22662,9.935,-0.929,0.73,-10.076,6.634,5.565
22711,9.865,-0.958,0.754,-12.29,5.252,6.702
22761,9.949,-1.044,0.901,-15.107,3.748,8.061
22811,9.877,-1.099,0.745,-18.603,2.496,9.137
22861,9.856,-1.298,0.747,-21.969,1.298,9.695
22912,9.884,-1.36,0.764,-25.763,0.145,9.84
22962,9.894,-1.494,0.625,-29.145,-0.725,9.16
23011,9.918,-1.72,0.536,-32.229,-1.496,7.924
23061,9.92,-1.794,0.457,-35.107,-2.229,6.069
23111,10.002,-1.849,0.457,-37.008,-2.282,3.702
23161,10.006,-1.861,0.326,-38.053,-2.046,1.176
23212,10.093,-1.789,0.208,-38.275,-1.473,-1.099
23262,10.028,-1.801,0.177,-37.557,-0.29,-3.45
23311,10.035,-1.669,0.079,-36.137,0.863,-4.779
23361,10.138,-1.602,0.129,-33.992,2.038,-5.649
23411,10.064,-1.516,0.081,-31.527,3.214,-6.122
23461,9.999,-1.437,0.098,-28.511,4.473,-6.313
23512,9.978,-1.377,0.113,-25.565,5.397,-6.29
23561,9.954,-1.396,0.244,-22.481,5.878,-6.366
23611,9.927,-1.291,0.182,-19.389,6.611,-6.649
23661,9.98,-1.205,0.283,-16.588,7.298,-6.588
23711,9.949,-1.176,0.216,-14.26,7.893,-6.458
23761,9.932,-1.078,0.347,-12.298,8.542,-5.893
23812,9.999,-1.056,0.381,-10.71,9.206,-5.0
23861,10.004,-0.893,0.4,-9.863,9.542,-4.069
23911,9.992,-0.941,0.558,-9.718,9.26,-2.786
23961,9.997,-0.96,0.668,-10.336,9.061,-1.679
24011,10.018,-0.881,0.805,-11.885,8.053,-0.153
24061,10.021,-0.819,0.697,-13.87,6.427,1.366
24112,10.054,-0.869,0.879,-16.718,4.939,3.092
24161,10.014,-0.934,0.879,-19.672,3.084,4.977
24211,9.999,-1.006,0.862,-23.267,1.664,6.427
24261,10.016,-1.085,0.819,-26.527,0.092,7.55
24311,10.057,-1.2,0.764,-29.847,-1.176,8.107
24361,10.04,-1.356,0.644,-32.916,-2.069,7.947
24412,10.052,-1.497,0.572,-35.466,-2.595,7.267
24461,10.05,-1.581,0.536,-37.382,-2.885,6.145
24511,10.117,-1.614,0.352,-38.443,-3.038,4.794
24561,10.093,-1.66,0.307,-39.076,-2.954,3.237
24611,9.999,-1.724,0.307,-38.664,-2.573,1.511
24662,9.968,-1.674,0.182,-37.466,-2.0,-0.038
24712,10.047,-1.576,0.158,-35.282,-1.58,-1.443
24761,9.901,-1.483,0.014,-32.42,-0.481,-2.527
24811,9.918,-1.514,0.043,-28.916,0.74,-3.466
24861,9.949,-1.518,-0.11,-24.573,1.992,-3.863
24911,9.903,-1.389,-0.062,-20.107,3.771,-4.061
24962,9.877,-1.36,-0.065,-15.313,5.412,-3.779
25012,9.918,-1.308,-0.034,-11.198,6.969,-3.878
25062,9.894,-1.303,0.043,-7.115,8.351,-3.962
25112,9.925,-1.293,0.151,-3.901,9.504,-3.985
25162,9.939,-1.269,0.285,-1.42,10.16,-4.107
25212,9.947,-1.171,0.39,-0.031,10.374,-3.695
25263,9.963,-1.169,0.431,0.229,10.458,-3.229
25312,10.047,-1.068,0.589,-0.45,10.099,-2.664
25362,10.018,-1.037,0.651,-1.954,9.397,-1.748
25412,10.083,-1.063,0.795,-4.687,8.328,-0.511
25462,10.148,-1.056,0.865,-7.969,7.29,0.42
25512,10.102,-1.123,0.862,-12.031,5.412,1.389
25563,9.992,-1.212,1.008,-16.412,3.427,2.008
25612,10.076,-1.212,1.015,-21.321,1.16,2.038
25662,10.059,-1.277,0.927,-25.809,-0.534,1.588
25712,10.093,-1.336,0.788,-29.649,-2.176,1.183
25762,9.997,-1.348,0.673,-33.069,-3.008,0.557
25812,10.052,-1.272,0.551,-35.389,-3.115,0.313
25863,9.98,-1.284,0.474,-36.916,-2.718,0.282
25912,10.006,-1.3,0.431,-37.802,-2.542,0.229
25962,9.982,-1.255,0.381,-37.588,-2.328,0.366
26012,10.052,-1.3,0.405,-36.947,-2.237,0.26
26062,9.975,-1.31,0.278,-35.573,-2.55,-0.046
26113,9.999,-1.248,0.249,-33.435,-2.603,-0.313
26163,9.942,-1.212,0.187,-30.58,-2.198,-0.45
26212,9.903,-1.221,0.12,-27.191,-1.71,-0.008
26262,9.858,-1.116,0.065,-23.046,-0.55,0.954
26312,9.894,-1.147,0.036,-18.748,0.985,1.863
26362,9.891,-1.212,-0.101,-14.046,2.588,2.84
26413,9.958,-1.363,0.022,-9.756,4.16,3.458
26463,9.879,-1.375,-0.038,-5.809,5.817,3.359
26513,9.975,-1.533,0.026,-2.557,6.954,2.527
26563,9.963,-1.521,0.196,-0.191,7.641,1.069
26613,9.949,-1.564,0.256,1.588,8.16,-0.252
26663,10.026,-1.521,0.345,2.328,8.305,-1.603
26714,10.006,-1.49,0.479,2.038,8.145,-2.481
26763,10.026,-1.456,0.541,1.374,8.084,-3.053
26813,10.088,-1.408,0.496,-0.092,8.115,-3.443
26863,10.109,-1.339,0.565,-2.252,8.008,-3.366
26913,10.097,-1.38,0.639,-5.183,7.565,-3.702
26963,10.059,-1.327,0.74,-8.672,7.031,-3.847
27014,10.061,-1.219,0.941,-12.718,5.908,-4.107
27063,9.97,-1.198,0.891,-16.992,4.603,-4.237
27113,9.98,-1.226,0.996,-21.634,2.718,-3.908
27163,10.018,-1.152,0.977,-25.901,0.412,-3.237
27213,9.937,-1.054,1.001,-29.947,-1.756,-2.565
27264,9.942,-1.095,0.838,-33.282,-3.16,-1.557
27314,9.939,-1.085,0.702,-35.656,-3.992,-0.366
27363,10.052,-1.027,0.608,-37.405,-4.466,0.595
27413,9.975,-1.104,0.484,-37.901,-4.443,1.145
27463,10.004,-1.128,0.412,-37.901,-4.084,1.321
27513,9.992,-1.286,0.302,-36.481,-4.191,1.351
27564,9.956,-1.224,0.342,-34.534,-3.756,1.191
27614,9.937,-1.253,0.115,-31.71,-3.359,0.939
27663,9.982,-1.186,0.084,-27.885,-2.901,0.733
27713,9.97,-1.166,-0.053,-23.313,-1.832,0.794
27763,9.999,-1.253,-0.069,-18.389,-0.427,1.244
27813,10.016,-1.229,-0.158,-13.214,1.634,1.74
27864,9.966,-1.233,-0.105,-7.947,3.672,2.427
27913,10.052,-1.291,-0.036,-3.191,5.893,2.618
27963,9.997,-1.317,0.019,0.664,7.45,2.695
28013,10.002,-1.375,0.187,4.198,8.672,2.237
28063,10.026,-1.425,0.275,6.107,9.412,1.359
28113,10.04,-1.451,0.422,6.847,9.824,0.779
28164,10.042,-1.372,0.541,6.351,9.58,0.275
28213,10.002,-1.435,0.594,4.626,8.695,-0.053
28263,9.973,-1.38,0.733,2.084,7.664,-0.122
28313,9.942,-1.442,0.723,-1.359,6.542,-0.176
28363,9.927,-1.478,0.807,-5.473,5.824,-0.466
28413,9.913,-1.502,0.8,-10.16,4.458,-1.298
28464,9.913,-1.547,0.805,-14.809,3.305,-2.206
28513,9.961,-1.466,0.869,-19.771,2.176,-3.206
28563,9.939,-1.485,0.91,-24.13,0.603,-4.061
28613,9.968,-1.403,0.786,-28.359,-0.885,-4.687
28663,10.04,-1.322,0.695,-31.588,-2.168,-4.718
28713,9.937,-1.241,0.51,-34.031,-2.939,-4.42
28764,9.992,-1.118,0.498,-35.412,-2.954,-3.718
28813,9.982,-1.15,0.462,-35.863,-2.519,-3.206
28863,9.947,-1.217,0.304,-35.55,-1.847,-2.71
28913,10.083,-1.174,0.297,-34.458,-0.931,-2.328
28963,10.061,-1.193,0.4,-32.924,-0.458,-2.16
29014,10.03,-1.154,0.388,-30.992,-0.649,-1.679
29064,10.054,-1.049,0.271,-28.542,-0.687,-1.183
29113,10.071,-1.061,0.295,-25.71,-0.954,-0.435
29163,10.035,-1.018,0.168,-22.527,-0.71,0.321
29213,10.035,-1.078,0.146,-18.725,-0.023,1.153
29263,10.035,-1.083,0.093,-14.893,1.435,2.107
29314,10.028,-1.095,0.053,-10.893,2.687,2.824
29364,9.997,-1.138,0.067,-7.244,4.092,3.466
29414,10.002,-1.14,0.091,-3.718,5.603,3.779
29464,9.978,-1.226,0.206,-1.061,6.42,4.038
29514,9.915,-1.243,0.235,0.748,7.137,4.229
29564,9.98,-1.363,0.366,1.977,7.229,4.214
29615,10.011,-1.372,0.541,2.038,7.305,4.053
29664,9.923,-1.447,0.522,0.87,6.786,3.695
29714,9.942,-1.559,0.548,-0.702,6.366,3.237
29764,9.867,-1.545,0.608,-3.176,5.344,2.252
29814,9.935,-1.667,0.651,-5.969,5.153,0.786
29864,9.954,-1.588,0.675,-9.351,4.954,-0.496
29915,9.872,-1.629,0.699,-13.168,4.71,-1.481
29964,10.026,-1.528,0.745,-17.115,4.046,-2.145
30014,9.939,-1.473,0.798,-21.374,3.191,-2.489
30064,9.978,-1.444,0.881,-25.641,1.824,-2.74
30114,10.021,-1.423,0.798,-29.496,0.389,-2.977
30164,10.014,-1.542,0.714,-33.107,-0.84,-3.725
30215,10.006,-1.442,0.651,-35.817,-1.885,-4.649
30264,10.021,-1.449,0.536,-37.58,-2.45,-5.847
30314,10.042,-1.358,0.474,-38.412,-2.191,-6.756
30364,9.992,-1.284,0.321,-38.344,-1.985,-7.099
30414,10.076,-1.138,0.383,-36.908,-1.702,-7.046
30465,10.083,-1.085,0.302,-34.618,-1.58,-6.26
30515,10.069,-1.039,0.196,-31.481,-1.313,-5.008
30564,10.006,-0.855,0.105,-27.45,-0.817,-3.641
30614,10.088,-0.91,0.079,-22.893,0.305,-1.924
30664,10.045,-0.872,-0.074,-17.794,2.229,-0.504
30714,9.992,-0.886,-0.024,-12.679,4.0,1.145
30765,10.05,-0.98,0.029,-8.298,5.985,2.481
30815,9.973,-0.908,0.113,-4.267,7.191,3.679
30865,10.006,-1.006,0.244,-1.267,8.183,4.618
30915,10.045,-1.037,0.359,0.786,8.336,5.168
30965,9.978,-1.121,0.486,1.382,7.969,6.031
31015,9.985,-1.126,0.635,0.817,7.176,6.427
31066,9.999,-1.277,0.613,-0.603,6.374,6.802
31115,10.069,-1.332,0.659,-2.992,5.519,6.58
31165,9.903,-1.471,0.752,-6.183,4.58,6.008
31215,9.86,-1.588,0.74,-9.863,3.87,5.069
31265,9.982,-1.626,0.68,-13.947,3.237,4.023
31315,9.987,-1.609,0.776,-18.336,2.267,2.855
31366,9.937,-1.674,0.721,-22.511,1.466,1.649
31415,9.944,-1.696,0.738,-26.443,0.122,0.267
31465,9.985,-1.686,0.75,-30.0,-0.924,-1.328
31515,9.958,-1.665,0.613,-32.855,-1.779,-2.588
31565,9.958,-1.662,0.534,-34.405,-2.076,-4.137
31616,9.923,-1.569,0.395,-35.344,-2.053,-5.321
31666,10.028,-1.499,0.285,-35.137,-1.061,-6.351
31715,10.109,-1.468,0.117,-34.053,-0.092,-7.191
31765,10.016,-1.329,0.175,-31.748,1.275,-7.71
31815,10.009,-1.269,0.192,-29.366,2.473,-7.603
31865,9.939,-1.166,0.247,-26.618,3.519,-7.496
31916,10.04,-1.032,0.208,-23.282,3.87,-6.84
31966,9.999,-0.963,0.237,-20.443,4.466,-5.542
32015,9.985,-0.862,0.28,-17.45,4.45,-3.733
32065,9.99,-0.85,0.28,-14.573,4.664,-1.977
32115,10.004,-0.877,0.412,-12.237,4.855,-0.321
32165,10.03,-0.879,0.259,-10.214,5.359,1.176
32216,9.99,-0.982,0.39,-8.573,5.718,2.107
32265,10.076,-1.059,0.424,-7.618,6.031,2.649
32315,10.033,-1.157,0.532,-7.55,5.87,3.084
32365,10.083,-1.106,0.587,-7.763,5.496,3.458
32415,10.136,-1.169,0.637,-8.389,5.061,3.855
32465,10.035,-1.25,0.604,-9.687,4.061,4.008
32516,10.057,-1.214,0.625,-11.443,3.374,4.267
32565,9.99,-1.274,0.541,-13.344,2.374,4.466
32615,10.011,-1.315,0.639,-15.405,1.855,4.382
32665,9.99,-1.336,0.548,-17.389,1.229,4.466
32715,10.028,-1.38,0.517,-19.305,1.336,4.374
32765,9.925,-1.511,0.517,-21.427,1.305,4.137
32816,9.927,-1.504,0.546,-23.229,1.176,3.656
32865,9.994,-1.581,0.536,-25.282,1.092,2.786
32915,10.004,-1.607,0.556,-27.115,0.519,1.702
32965,10.004,-1.698,0.431,-28.58,0.076,0.115
33015,9.92,-1.681,0.532,-29.573,-0.45,-1.321
33065,9.937,-1.619,0.429,-30.221,-1.16,-2.969
33116,9.827,-1.607,0.297,-29.962,-1.321,-4.366
33165,9.894,-1.485,0.134,-28.802,-0.534,-5.519
33215,9.915,-1.377,0.125,-26.779,0.534,-5.885
33265,9.939,-1.394,0.189,-24.16,2.191,-5.634
33315,9.882,-1.3,0.16,-21.382,3.931,-5.099
33366,9.925,-1.207,0.177,-18.634,5.008,-4.427
33416,9.918,-1.205,0.271,-15.802,5.74,-3.908
33465,10.023,-1.198,0.316,-13.305,5.382,-3.962
33515,10.04,-1.138,0.34,-11.168,5.359,-3.786
33565,10.109,-1.118,0.366,-9.153,5.466,-3.626
33615,10.042,-1.09,0.266,-7.519,6.023,-3.351
33666,10.076,-0.97,0.307,-6.229,6.779,-2.45
33716,10.109,-0.975,0.388,-5.527,7.359,-1.382
33766,10.052,-0.989,0.532,-5.542,7.664,-0.084
33816,10.093,-1.006,0.58,-6.412,7.282,1.366
33866,10.076,-1.032,0.79,-7.992,6.29,2.206
33916,10.054,-1.109,0.75,-10.29,4.824,3.137
33967,10.042,-1.221,0.8,-13.084,3.229,3.55
34016,10.04,-1.145,0.781,-16.023,1.504,3.809
34066,10.004,-1.289,0.824,-19.252,0.466,3.672
34116,10.023,-1.315,0.611,-22.076,-0.282,3.771
34166,9.942,-1.368,0.671,-24.779,-0.756,3.656
34216,9.935,-1.358,0.58,-27.107,-1.29,3.504
34267,9.951,-1.38,0.587,-29.008,-1.641,3.267
34316,9.913,-1.432,0.527,-30.206,-2.153,2.931
34366,9.985,-1.492,0.457,-30.924,-2.405,2.252
34416,9.93,-1.562,0.369,-30.893,-2.725,1.336
34466,9.932,-1.535,0.259,-30.038,-2.664,0.031
34516,9.942,-1.49,0.12,-28.221,-1.962,-1.435
34567,9.997,-1.502,0.022,-25.771,-0.496,-2.405
34616,9.951,-1.463,0.014,-22.695,1.008,-3.092
34666,9.935,-1.38,-0.046,-19.328,2.786,-3.069
34716,10.002,-1.284,-0.012,-15.985,4.366,-2.687
34766,9.915,-1.312,0.151,-12.794,5.412,-2.099
34817,9.994,-1.308,0.249,-9.901,6.145,-1.397
34867,9.99,-1.32,0.28,-7.786,6.191,-1.321
34916,10.05,-1.339,0.297,-6.275,5.901,-1.733
34966,10.088,-1.392,0.371,-4.885,5.786,-2.252
35016,10.059,-1.372,0.381,-4.221,6.046,-2.931
35066,10.097,-1.37,0.311,-3.779,6.473,-3.565
35117,10.052,-1.248,0.448,-3.947,6.863,-3.885
35167,10.083,-1.176,0.417,-4.695,7.542,-3.962
35217,10.073,-1.159,0.618,-6.031,7.664,-3.351
35267,10.042,-1.133,0.699,-8.168,6.855,-2.641
35317,10.021,-1.106,0.802,-10.458,5.344,-1.382
35367,9.961,-1.085,0.869,-13.237,3.504,-0.573
35418,10.018,-1.147,0.798,-16.427,1.679,-0.015
35467,9.97,-1.164,0.764,-19.29,0.336,0.55
35517,9.973,-1.102,0.719,-21.656,-0.565,0.847
35567,9.935,-1.157,0.608,-23.893,-1.137,1.038
35617,9.958,-1.13,0.572,-25.649,-1.214,1.412
35667,9.93,-1.243,0.486,-26.992,-1.298,2.229
35718,9.97,-1.231,0.558,-27.786,-1.115,3.115
35767,10.016,-1.152,0.469,-28.389,-1.481,3.641
35817,10.076,-1.32,0.52,-28.756,-2.038,3.603
35867,10.033,-1.406,0.398,-28.443,-2.389,3.038
35917,10.088,-1.461,0.331,-27.855,-2.71,2.046
35968,10.045,-1.492,0.218,-26.191,-2.588,0.664
36018,10.057,-1.456,0.12,-23.878,-1.977,-0.359
36067,9.985,-1.447,0.031,-21.573,-0.336,-0.893
36175,10.061,-1.324,0.048,-14.382,2.863,-0.511
36225,10.035,-1.303,0.103,-11.366,4.137,-0.061
36275,10.006,-1.389,0.165,-8.321,4.809,0.031
36324,9.966,-1.466,0.189,-5.718,4.878,-0.603
36374,9.925,-1.451,0.271,-3.267,5.45,-1.473
36424,9.913,-1.43,0.247,-1.557,5.695,-2.229
36474,9.97,-1.403,0.232,0.069,6.313,-3.0
36525,9.894,-1.324,0.323,0.901,7.519,-3.336
36575,9.97,-1.281,0.424,1.244,8.412,-3.0
36625,9.918,-1.236,0.438,0.55,9.305,-2.351
36675,9.939,-1.214,0.733,-1.565,9.061,-1.893
36725,9.994,-1.233,0.802,-4.115,7.809,-1.282
36775,9.949,-1.25,0.992,-7.809,5.672,-0.901
36826,10.038,-1.186,0.994,-11.779,3.382,-0.908
36875,10.04,-1.305,0.946,-15.885,1.107,-1.137
36925,10.102,-1.267,0.81,-19.901,-0.87,-1.534
36975,10.145,-1.214,0.774,-23.298,-1.962,-1.924
37025,10.102,-1.2,0.618,-26.061,-2.008,-1.618
37075,10.133,-1.118,0.56,-28.183,-1.84,-1.427
37126,10.119,-1.186,0.505,-29.771,-1.45,-0.756
37175,10.059,-1.209,0.501,-30.901,-1.542,-0.168
37225,9.966,-1.289,0.445,-31.237,-2.038,0.023
37275,10.004,-1.277,0.484,-31.008,-2.832,0.031
37325,9.973,-1.274,0.431,-29.84,-3.519,-0.313
37376,9.973,-1.248,0.254,-27.893,-3.611,-0.87
37426,9.966,-1.19,0.141,-25.145,-3.084,-1.069
37475,10.028,-1.145,0.084,-21.702,-1.809,-0.542
37525,10.026,-1.025,0.017,-17.908,-0.153,0.092
37575,9.973,-1.068,-0.014,-13.588,1.733,1.443
37625,9.987,-1.123,0.067,-9.275,3.176,2.802
37676,10.014,-1.195,0.074,-5.092,4.351,3.573
37726,9.961,-1.255,0.146,-2.115,5.137,3.947
37775,9.973,-1.396,0.218,0.237,5.473,3.702
37825,9.944,-1.516,0.254,2.107,5.626,2.656
37875,9.958,-1.586,0.232,3.443,5.962,1.725
37925,9.913,-1.518,0.422,3.855,6.359,0.427
37976,9.987,-1.542,0.45,3.374,6.824,-0.74
38025,9.968,-1.425,0.479,2.153,7.405,-1.397
38075,9.987,-1.372,0.584,0.191,7.275,-2.168
38125,9.999,-1.384,0.711,-2.649,6.84,-2.275
38175,9.975,-1.435,0.819,-5.985,5.771,-2.389
38225,10.083,-1.392,0.869,-9.74,4.046,-2.702
38276,10.078,-1.356,0.824,-13.756,2.183,-2.878
38325,10.006,-1.317,0.848,-17.611,0.45,-3.397
38375,9.958,-1.356,0.762,-20.916,-0.847,-3.954
38425,9.954,-1.305,0.704,-23.634,-1.519,-4.496
38475,9.999,-1.267,0.565,-25.626,-1.412,-4.321
38525,9.942,-1.171,0.536,-27.168,-1.267,-3.977
38576,9.982,-1.085,0.445,-27.565,-1.153,-3.298
38625,10.006,-1.066,0.481,-27.435,-1.038,-2.603
38675,10.061,-1.054,0.405,-27.29,-1.168,-1.382
38725,10.038,-1.078,0.493,-26.244,-1.427,-0.321
38775,10.018,-1.164,0.354,-24.824,-1.885,0.153
38825,9.98,-1.176,0.297,-23.13,-1.893,0.466
38876,10.066,-1.214,0.122,-20.832,-1.634,0.382
38925,9.899,-1.154,0.199,-18.046,-0.824,0.489
38975,10.014,-1.138,0.139,-15.137,0.282,0.908
39025,9.942,-1.159,0.132,-11.863,1.527,1.58
39075,9.954,-1.202,0.144,-8.695,2.84,2.458
39126,9.944,-1.212,0.225,-6.099,3.786,2.985
39176,9.954,-1.277,0.287,-3.588,4.389,3.313
39225,9.99,-1.399,0.34,-1.84,4.649,2.962
39275,9.956,-1.478,0.331,-0.977,4.473,2.198
39325,9.968,-1.48,0.366,-0.061,4.626,1.313
39375,10.006,-1.413,0.431,0.206,4.71,0.206
39426,9.994,-1.401,0.299,0.13,4.878,-0.176
39476,9.992,-1.334,0.467,-0.702,5.122,-0.267
39526,9.951,-1.274,0.493,-1.817,5.351,0.145
39576,10.014,-1.296,0.563,-3.542,5.374,0.504
39626,9.97,-1.423,0.606,-5.641,5.092,0.756
39676,9.958,-1.463,0.742,-8.58,4.313,0.496
39727,9.973,-1.408,0.702,-11.58,3.405,-0.122
39776,9.99,-1.516,0.754,-14.908,2.344,-1.344
39826,9.92,-1.576,0.754,-18.252,1.053,-2.45
39876,9.954,-1.514,0.699,-21.542,0.031,-3.252
39926,9.968,-1.435,0.637,-24.198,-0.916,-3.916
39976,9.947,-1.348,0.673,-26.252,-1.649,-3.924
40027,9.994,-1.293,0.565,-27.626,-2.206,-3.87
40076,10.021,-1.303,0.453,-27.901,-2.015,-3.634
40126,10.026,-1.241,0.309,-27.649,-1.779,-3.718
40176,10.03,-1.255,0.244,-26.908,-1.092,-3.802
40226,10.095,-1.221,0.22,-25.107,-0.313,-4.0
40276,10.076,-1.19,0.242,-22.893,0.328,-4.084
40327,10.026,-1.114,0.208,-20.427,0.87,-3.931
40376,10.042,-1.006,0.249,-17.84,1.565,-3.534
40426,9.999,-0.936,0.244,-14.611,1.885,-2.366
40476,9.937,-0.877,0.275,-11.664,2.359,-0.962
40526,9.999,-0.932,0.247,-8.687,2.832,0.939
40577,9.999,-0.972,0.309,-5.901,3.359,2.855
40627,10.04,-1.059,0.307,-3.733,3.641,4.458
40676,9.999,-1.114,0.311,-1.679,4.26,5.366
40726,10.014,-1.257,0.326,-0.443,4.42,5.573
40776,10.016,-1.209,0.366,0.198,4.672,5.374
40826,9.994,-1.401,0.371,0.198,5.076,4.634
40877,10.035,-1.473,0.501,-0.504,5.244,3.885
40927,10.03,-1.506,0.536,-2.076,4.947,3.176
40977,10.021,-1.451,0.623,-4.282,4.878,2.763
41027,9.985,-1.523,0.656,-7.0,3.985,2.031
41077,10.028,-1.554,0.625,-10.023,2.939,1.359
41127,10.011,-1.629,0.719,-13.466,1.962,0.427
41178,10.016,-1.6,0.666,-16.58,0.931,-0.771
41227,9.973,-1.581,0.608,-19.55,0.305,-2.313
41277,9.949,-1.638,0.541,-21.916,-0.137,-3.687
41327,9.944,-1.542,0.656,-23.863,-0.435,-4.878
41377,9.915,-1.463,0.505,-25.191,-0.626,-5.58
41427,9.891,-1.368,0.407,-25.817,-0.725,-5.756
41478,9.956,-1.207,0.46,-25.718,-0.527,-5.527
41527,9.939,-1.15,0.364,-24.87,-0.328,-4.656
41577,9.975,-1.116,0.314,-23.802,0.137,-3.855
41627,9.973,-1.212,0.359,-21.992,0.542,-2.924
41677,10.05,-1.142,0.295,-20.122,1.221,-2.038
41728,10.04,-1.142,0.194,-17.863,1.901,-1.832
41778,10.054,-1.114,0.268,-15.435,2.626,-1.71
41827,10.061,-1.195,0.256,-13.656,2.962,-1.519
41877,10.016,-1.159,0.314,-11.458,3.344,-1.046
41927,10.081,-1.111,0.352,-9.771,3.473,-0.405
41977,9.999,-1.138,0.378,-8.015,3.122,0.359
42028,10.093,-1.095,0.342,-6.664,3.145,1.168
42078,10.052,-1.195,0.39,-5.328,3.137,1.534
42127,10.045,-1.207,0.311,-4.382,3.656,1.725
42177,10.05,-1.224,0.386,-3.557,4.275,2.191
42227,10.076,-1.274,0.354,-3.29,5.046,2.26
42277,10.018,-1.308,0.364,-3.595,5.634,1.947
42328,9.968,-1.3,0.489,-4.672,6.061,2.053
42377,9.935,-1.322,0.625,-6.267,5.481,1.847
42427,9.997,-1.341,0.757,-8.893,4.252,2.198
42477,9.947,-1.339,0.81,-11.733,2.382,1.962
42527,9.879,-1.375,0.747,-14.748,0.473,2.046
42577,9.958,-1.427,0.651,-17.626,-0.725,1.557
42628,9.872,-1.463,0.572,-20.038,-1.412,1.13
42677,9.987,-1.461,0.525,-21.618,-1.611,0.458
42727,9.994,-1.425,0.366,-23.053,-1.26,-0.145
42777,9.97,-1.461,0.436,-23.771,-0.565,-0.595
42827,10.052,-1.392,0.319,-23.893,-0.115,-0.794
42877,9.985,-1.447,0.287,-23.802,0.191,-1.053
42928,10.016,-1.451,0.398,-23.183,0.344,-1.183
42977,10.006,-1.401,0.364,-22.458,0.466,-1.443
43027,10.04,-1.432,0.285,-21.084,0.366,-2.099
43077,10.059,-1.413,0.271,-19.412,0.779,-3.061
43127,10.064,-1.403,0.225,-17.496,1.466,-3.626
43177,10.05,-1.413,0.165,-15.382,2.534,-4.511
43228,9.999,-1.368,0.172,-13.374,3.687,-5.191
43277,10.009,-1.233,0.156,-11.084,4.817,-5.29
43327,10.045,-1.142,0.251,-9.26,5.58,-4.985
43377,9.958,-1.135,0.331,-7.588,5.947,-4.527
43427,9.973,-1.037,0.474,-6.45,5.985,-3.534
43478,9.963,-0.987,0.481,-5.763,5.328,-2.42
43528,9.978,-0.924,0.503,-5.237,4.664,-0.939
43577,9.987,-0.989,0.596,-5.321,4.221,0.603
43627,9.949,-1.015,0.623,-6.015,3.763,1.626
43677,10.105,-1.051,0.501,-6.855,3.878,2.427
43727,9.999,-1.142,0.599,-8.191,3.71,2.924
43778,10.038,-1.186,0.62,-9.939,3.237,3.45
43828,10.054,-1.245,0.781,-11.901,2.511,3.519
43878,10.035,-1.348,0.721,-14.229,1.038,3.824
43928,10.016,-1.229,0.764,-16.366,-0.298,3.954
43978,10.083,-1.425,0.635,-18.336,-1.389,3.878
44028,10.061,-1.396,0.551,-20.031,-2.107,3.344
44079,9.975,-1.576,0.556,-21.176,-2.214,2.656
44128,10.004,-1.617,0.271,-21.725,-1.641,1.641
44178,10.052,-1.552,0.299,-21.817,-0.634,0.473
44228,9.98,-1.514,0.223,-21.366,0.29,-0.824
44278,10.004,-1.535,0.273,-20.733,0.916,-1.458
44328,10.016,-1.42,0.383,-19.931,1.176,-2.069
44379,9.978,-1.423,0.309,-18.947,1.458,-2.672
44428,9.963,-1.389,0.235,-17.718,1.305,-2.947
44478,9.944,-1.336,0.314,-16.275,1.443,-3.168
44528,9.913,-1.344,0.249,-14.71,1.878,-3.374
44578,9.887,-1.339,0.175,-13.061,2.511,-3.527
44628,10.018,-1.262,0.247,-11.084,3.534,-3.405
44679,9.968,-1.209,0.268,-9.679,4.565,-2.931
44728,9.935,-1.207,0.283,-8.344,5.076,-2.588
44778,9.954,-1.176,0.283,-7.527,5.298,-1.855
44828,10.018,-1.14,0.505,-6.969,4.939,-1.397
44878,10.023,-1.195,0.548,-6.779,4.321,-0.893
44929,10.028,-1.207,0.556,-6.924,3.443,-0.679
44979,10.054,-1.255,0.534,-7.16,3.061,-0.855
45028,10.064,-1.286,0.529,-7.344,2.817,-0.664
45078,10.073,-1.231,0.328,-7.847,3.107,-0.58
45128,10.03,-1.296,0.46,-8.336,3.412,-0.573
45178,10.069,-1.2,0.433,-9.046,4.023,-0.473
45229,10.026,-1.226,0.484,-10.267,4.252,-0.305
45279,10.021,-1.193,0.601,-11.725,3.855,0.153
45329,10.026,-1.214,0.74,-13.466,3.069,0.389
45379,10.018,-1.217,0.683,-15.435,1.885,0.695
45429,9.985,-1.265,0.642,-17.489,0.489,0.878
45479,9.913,-1.229,0.627,-19.42,-0.802,1.023
45530,9.935,-1.248,0.568,-20.977,-1.336,0.908
45579,9.978,-1.272,0.584,-21.901,-1.847,0.855
45629,9.942,-1.291,0.45,-22.45,-1.634,0.74
45679,10.016,-1.272,0.362,-22.397,-1.412,0.84
45729,9.961,-1.274,0.299,-21.924,-0.954,1.0
45779,9.966,-1.291,0.302,-20.885,-0.672,1.145
45830,9.973,-1.344,0.247,-19.473,-0.466,1.344
45879,9.937,-1.353,0.208,-17.847,-0.015,1.153
45929,10.006,-1.408,0.244,-16.107,0.221,0.855
45979,9.93,-1.425,0.218,-14.168,0.931,0.115
46029,10.011,-1.483,0.125,-11.802,2.092,-0.725
46080,9.99,-1.514,0.148,-9.679,2.786,-1.618
46130,9.966,-1.449,0.192,-7.42,4.145,-2.351
46179,9.937,-1.387,0.228,-5.779,4.962,-3.038
46229,9.975,-1.322,0.302,-4.351,5.847,-3.122
46279,9.97,-1.236,0.417,-3.557,6.275,-3.244
46329,9.961,-1.212,0.369,-3.13,6.336,-2.817
46380,9.932,-1.32,0.51,-3.412,5.725,-2.718
46430,10.035,-1.233,0.57,-4.176,5.084,-2.328
46479,10.057,-1.231,0.623,-5.046,4.344,-2.29
46529,10.064,-1.154,0.606,-6.481,3.611,-1.87
46579,10.009,-1.183,0.479,-8.29,3.153,-1.679
46629,10.057,-1.2,0.57,-9.885,3.153,-1.115
46680,10.059,-1.118,0.644,-11.756,2.794,-0.382
46729,10.011,-1.205,0.62,-13.84,2.473,0.069
46779,9.992,-1.243,0.663,-15.847,1.618,0.519
46829,9.987,-1.293,0.683,-18.046,0.511,0.656
46879,9.968,-1.269,0.699,-20.053,-0.863,0.458
46929,9.954,-1.322,0.558,-21.573,-2.023,0.084
46980,9.98,-1.368,0.503,-22.557,-2.863,-0.229
47029,10.042,-1.243,0.419,-22.74,-2.954,-0.328
47079,10.071,-1.152,0.347,-22.092,-2.313,-0.137
47129,9.975,-1.186,0.201,-20.947,-1.168,0.328
47179,9.982,-1.157,0.153,-19.565,0.076,0.878
47229,9.999,-1.277,0.218,-17.718,1.244,1.458
47280,10.016,-1.262,0.331,-16.023,1.687,1.725
47329,9.949,-1.396,0.328,-14.473,1.71,1.466
47379,9.856,-1.38,0.426,-13.16,1.603,0.977
47429,9.963,-1.447,0.302,-11.908,1.237,0.359
47479,9.958,-1.425,0.299,-10.595,1.122,-0.267
47529,9.968,-1.399,0.271,-9.053,1.519,-0.695
47580,10.006,-1.332,0.292,-7.511,2.641,-0.939
47629,10.093,-1.324,0.28,-5.847,3.611,-0.878
47679,10.09,-1.348,0.213,-4.786,4.481,-0.87
47729,10.03,-1.346,0.395,-3.939,4.802,-0.511
47779,10.069,-1.233,0.39,-3.496,4.878,-0.496
47830,10.016,-1.365,0.395,-3.542,4.687,-0.305
47880,9.985,-1.346,0.426,-3.87,4.221,-0.244
47929,9.937,-1.403,0.51,-4.672,4.038,-0.504
47979,9.896,-1.339,0.532,-5.817,4.0,-1.061
48029,9.994,-1.401,0.594,-7.107,3.802,-1.885
48079,10.011,-1.406,0.479,-8.519,3.809,-2.519
48130,9.963,-1.339,0.611,-10.443,3.626,-3.137
48180,9.935,-1.315,0.596,-12.435,3.328,-3.412
48230,9.877,-1.243,0.58,-14.389,2.641,-3.321
48280,9.966,-1.238,0.582,-16.527,1.84,-2.733
48330,10.038,-1.154,0.714,-18.351,0.786,-2.229
48380,9.947,-1.221,0.656,-19.824,-0.252,-1.748
48431,10.028,-1.212,0.606,-21.374,-1.084,-1.244
48480,10.088,-1.116,0.572,-22.313,-1.534,-0.916
48530,10.016,-1.14,0.41,-22.565,-1.618,-0.695
48580,10.09,-1.14,0.395,-22.443,-1.542,-0.282
48630,9.978,-1.104,0.405,-21.924,-1.198,0.473
48680,9.99,-1.111,0.309,-20.893,-0.924,1.16
48731,10.073,-1.183,0.402,-19.26,-0.687,1.756
48780,9.97,-1.217,0.319,-17.763,-0.718,2.191
48830,9.963,-1.279,0.285,-16.099,-0.618,2.328
48880,9.987,-1.387,0.194,-13.679,-0.389,1.893
48930,9.942,-1.425,0.113,-11.687,0.42,0.969
48980,9.999,-1.372,0.113,-8.763,1.42,0.122
49031,9.987,-1.401,0.077,-6.252,3.092,-0.427
49080,10.047,-1.346,0.11,-3.779,4.382,-0.756
49130,10.059,-1.348,0.251,-1.962,5.55,-0.748
49180,9.887,-1.241,0.302,-0.275,6.45,-0.229
49230,9.997,-1.257,0.45,0.031,6.557,0.305
49281,9.908,-1.236,0.491,0.122,6.16,1.038
49331,10.011,-1.334,0.525,-1.069,5.359,1.008
49380,9.937,-1.439,0.558,-2.511,4.756,0.756
49430,9.954,-1.437,0.651,-4.74,4.191,-0.069
49480,10.002,-1.471,0.601,-7.198,3.458,-0.878
49530,10.002,-1.454,0.63,-9.977,3.145,-1.855
49581,10.026,-1.435,0.62,-12.718,2.336,-2.542
49631,10.069,-1.336,0.654,-15.626,1.679,-2.748
49681,10.006,-1.279,0.601,-18.031,0.924,-2.718
49731,10.023,-1.312,0.687,-20.374,-0.099,-2.229
49781,10.009,-1.353,0.572,-22.168,-1.084,-2.336
49831,10.018,-1.315,0.589,-23.435,-1.626,-2.298
49882,10.006,-1.32,0.544,-23.901,-2.229,-2.779
49931,10.107,-1.25,0.345,-23.473,-2.198,-2.878
49981,10.006,-1.26,0.259,-22.588,-1.595,-3.107
50031,10.018,-1.14,0.278,-21.137,-0.664,-3.0
50081,10.04,-1.111,0.249,-18.931,0.519,-2.282
50131,9.987,-1.013,0.271,-16.588,1.473,-1.611
50182,9.949,-1.109,0.228,-14.267,2.435,-0.55
50231,9.999,-1.099,0.271,-12.198,2.908,0.45
50281,9.949,-1.13,0.261,-10.16,2.931,1.115
50331,9.918,-1.145,0.28,-8.618,3.038,1.427
50381,9.987,-1.233,0.29,-7.45,2.802,1.71
50432,9.963,-1.212,0.438,-6.527,2.87,1.74
50482,9.99,-1.262,0.386,-5.794,2.71,1.626
50531,10.035,-1.209,0.426,-5.542,2.87,1.924
50581,10.006,-1.267,0.496,-5.237,3.046,2.015
50631,10.014,-1.31,0.455,-5.603,3.084,2.366
50681,10.05,-1.315,0.498,-6.122,2.702,2.458
50732,10.016,-1.346,0.563,-6.771,2.42,2.366
50782,10.064,-1.423,0.544,-7.649,1.87,1.939
50831,9.966,-1.499,0.556,-8.45,1.359,1.321
50881,9.987,-1.497,0.323,-9.443,1.573,0.198
50931,10.018,-1.518,0.381,-10.031,1.931,-1.244
50981,10.023,-1.502,0.338,-10.733,2.573,-2.168
51032,10.011,-1.423,0.378,-11.511,3.45,-2.84
51081,9.99,-1.375,0.546,-12.305,3.908,-3.275
51131,10.028,-1.305,0.546,-13.435,3.733,-3.023
51181,9.949,-1.312,0.613,-14.809,3.13,-2.985
51231,9.97,-1.303,0.678,-16.221,2.031,-2.405
51281,9.944,-1.238,0.623,-17.725,1.008,-2.214
51332,9.99,-1.312,0.532,-18.847,-0.038,-2.145
51381,9.932,-1.32,0.505,-19.679,-0.473,-2.649
51431,9.947,-1.372,0.424,-19.939,-0.366,-2.878
51481,9.973,-1.272,0.424,-19.939,0.168,-3.282
51531,9.958,-1.19,0.347,-19.397,0.771,-3.069
51581,9.968,-1.152,0.326,-18.71,1.16,-2.443
51632,10.023,-1.116,0.39,-17.435,1.244,-1.817
51681,9.994,-1.056,0.381,-16.344,1.084,-0.595
51731,10.138,-1.116,0.352,-14.893,0.947,-0.038
51781,10.141,-1.133,0.369,-13.305,0.817,0.588
51831,10.138,-1.145,0.254,-11.42,1.008,0.42
51881,10.121,-1.188,0.24,-9.664,1.366,0.588
51932,10.069,-1.171,0.23,-7.45,2.405,0.534
51981,10.078,-1.195,0.244,-5.603,3.206,0.763
52031,10.071,-1.212,0.23,-4.229,4.198,1.511
52081,9.985,-1.135,0.395,-2.977,5.107,2.405
52131,9.915,-1.255,0.354,-2.664,5.053,3.061
52182,9.944,-1.289,0.503,-2.878,5.0,3.573
52232,9.966,-1.365,0.57,-3.977,4.664,3.71
52281,9.963,-1.478,0.582,-5.267,3.908,3.107
52331,9.872,-1.55,0.584,-7.282,3.725,2.122
52381,9.978,-1.557,0.577,-9.527,3.092,0.832
52431,9.925,-1.588,0.659,-12.282,2.71,-0.489
52482,9.908,-1.54,0.666,-15.252,2.427,-1.389
52532,9.903,-1.454,0.671,-18.092,1.885,-1.885
52582,9.93,-1.394,0.678,-21.145,0.733,-2.26
52632,9.97,-1.346,0.754,-23.542,-0.084,-2.405
52682,9.99,-1.37,0.572,-25.809,-1.122,-2.504
52732,9.966,-1.38,0.599,-27.107,-2.092,-2.992
52783,9.93,-1.372,0.486,-28.122,-2.328,-3.198
52832,9.963,-1.358,0.395,-28.092,-2.405,-3.733
52882,9.872,-1.31,0.261,-26.985,-1.672,-4.038
52932,10.052,-1.219,0.139,-25.588,-0.786,-3.763
52982,9.911,-1.169,0.141,-23.55,0.405,-3.458
53032,9.997,-1.15,0.208,-21.084,1.389,-2.611
53083,9.994,-1.133,0.266,-18.382,2.344,-2.023
53132,10.006,-1.171,0.275,-15.756,2.595,-1.374
53182,9.99,-1.135,0.29,-13.145,2.779,-1.267
53232,10.042,-1.212,0.204,-10.649,3.336,-0.992
53282,10.054,-1.248,0.285,-8.237,4.061,-1.237
53332,10.126,-1.269,0.235,-6.084,4.702,-1.481
53383,10.133,-1.157,0.307,-4.366,5.229,-1.397
53432,10.119,-1.157,0.39,-2.992,5.565,-1.153
53482,10.064,-1.138,0.436,-1.802,5.489,-0.153
53532,10.105,-1.083,0.467,-1.458,5.282,1.0
53582,10.124,-1.037,0.52,-1.26,4.672,2.244
53633,10.028,-1.152,0.558,-1.435,3.809,3.282
53683,10.105,-1.248,0.505,-1.664,3.405,3.55
53732,10.102,-1.284,0.484,-2.092,3.084,3.435
53782,10.186,-1.3,0.51,-2.878,3.115,3.031
53832,10.1,-1.332,0.354,-3.634,3.321,2.672
53882,10.069,-1.241,0.527,-4.557,3.695,2.511
53933,10.078,-1.221,0.525,-5.885,3.58,2.962
53983,10.054,-1.25,0.491,-7.237,3.58,3.389
54033,9.93,-1.317,0.651,-9.45,3.176,3.901
54083,9.954,-1.439,0.62,-11.885,3.015,4.099
54133,9.913,-1.545,0.608,-14.55,1.962,3.916
54183,9.901,-1.581,0.632,-17.725,1.42,3.061
54234,9.872,-1.629,0.599,-20.985,1.061,2.0
54283,9.82,-1.705,0.606,-24.252,0.389,0.71
54333,9.788,-1.77,0.563,-27.649,0.183,-0.702
54383,9.741,-1.724,0.594,-30.718,-0.145,-2.29
54433,9.776,-1.751,0.582,-33.58,-0.321,-3.832
54483,9.769,-1.748,0.496,-36.031,-0.534,-5.336
54534,9.772,-1.66,0.455,-37.733,-1.107,-6.809
54583,9.853,-1.53,0.51,-39.038,-1.496,-8.183
54633,9.853,-1.53,0.393,-39.397,-2.015,-9.618
54683,9.896,-1.38,0.223,-38.275,-1.992,-10.58
54733,10.021,-1.233,0.211,-36.282,-1.435,-11.008
54784,9.968,-1.154,0.079,-33.282,-0.443,-10.817
54834,10.03,-0.989,0.077,-29.45,0.817,-9.718
54883,10.009,-0.841,0.065,-24.847,2.031,-8.282
54933,9.98,-0.752,0.084,-19.817,3.061,-6.122
54983,10.095,-0.697,0.065,-14.366,4.298,-3.863
55033,10.109,-0.661,0.16,-9.427,4.962,-1.45
55084,10.16,-0.709,0.141,-4.435,5.603,0.916
55134,10.176,-0.733,0.151,-0.137,6.71,2.824
55183,10.253,-0.778,0.184,3.458,7.786,4.496
55233,10.248,-0.853,0.235,6.435,8.763,5.679
55283,10.287,-0.936,0.297,8.336,9.641,6.58
55333,10.208,-0.992,0.532,8.649,10.107,7.42
55384,10.222,-1.061,0.707,7.626,9.733,8.122
55433,10.119,-1.083,0.704,5.382,8.45,8.527
55483,10.191,-1.205,0.901,2.168,7.038,8.687
55533,10.081,-1.327,0.936,-2.344,4.931,8.802
55583,10.109,-1.382,1.001,-6.87,2.733,8.252
55633,10.076,-1.511,0.857,-11.756,0.947,7.466
55684,10.078,-1.499,0.814,-16.443,-0.435,6.145
55733,10.119,-1.554,0.733,-20.679,-1.137,4.969
55783,10.047,-1.528,0.599,-24.084,-1.725,3.71
55833,9.968,-1.494,0.587,-26.962,-1.977,3.046
55883,10.006,-1.454,0.599,-29.282,-2.13,2.718
55933,9.927,-1.447,0.51,-30.641,-2.496,2.733
55984,9.884,-1.494,0.422,-31.725,-2.611,2.733
56033,9.882,-1.583,0.405,-31.71,-2.687,2.649
56083,9.824,-1.571,0.225,-31.076,-2.351,1.939
56133,9.788,-1.657,0.184,-29.885,-1.771,1.313
56183,9.717,-1.748,0.05,-28.099,-0.55,-0.214
56233,9.729,-1.784,-0.007,-26.008,1.015,-1.611
56284,9.69,-1.777,-0.019,-23.565,2.878,-3.183
56333,9.733,-1.837,0.093,-21.511,4.557,-4.779
56383,9.688,-1.823,0.077,-19.344,6.153,-5.985
56433,9.697,-1.794,0.122,-17.824,7.069,-7.519
56483,9.743,-1.801,0.232,-16.679,7.847,-9.107
56534,9.791,-1.825,0.39,-16.344,7.885,-11.122
56584,9.764,-1.691,0.424,-16.221,7.863,-13.237
56633,9.805,-1.506,0.467,-16.519,7.832,-14.87
56683,9.875,-1.372,0.448,-17.053,7.756,-16.13
56733,9.899,-1.212,0.546,-17.771,7.557,-16.55
56783,10.006,-1.02,0.599,-18.45,7.702,-15.855
56834,10.011,-0.793,0.685,-19.183,7.137,-13.962
56884,10.076,-0.644,0.683,-20.084,6.198,-11.832
56934,10.102,-0.431,0.821,-20.809,4.908,-8.939
56984,10.169,-0.429,0.841,-21.634,3.611,-5.794
57034,10.148,-0.362,0.8,-22.145,2.015,-2.542
57084,10.169,-0.371,0.843,-22.695,0.649,0.58
57135,10.198,-0.371,0.745,-22.756,-0.641,3.863
57184,10.208,-0.316,0.651,-22.695,-1.763,7.038
57234,10.327,-0.39,0.611,-21.901,-2.366,10.244
57284,10.378,-0.546,0.465,-21.069,-2.458,13.176
57334,10.344,-0.663,0.448,-19.931,-2.412,15.519
57384,10.363,-0.922,0.462,-18.947,-2.26,17.26
57435,10.39,-1.118,0.419,-17.962,-2.16,18.313
57484,10.253,-1.3,0.359,-17.214,-2.115,18.473
57534,10.27,-1.475,0.4,-16.573,-1.969,17.626
57584,10.243,-1.564,0.381,-16.061,-1.939,16.267
57634,10.093,-1.736,0.213,-15.504,-1.55,14.443
57684,10.143,-1.796,0.24,-15.008,-1.038,12.573
57735,10.009,-1.827,0.101,-14.634,-0.282,10.756
57784,10.004,-1.859,0.302,-14.321,0.511,8.916
57834,9.891,-1.933,0.24,-14.504,1.191,6.916
57884,9.865,-1.988,0.235,-14.267,1.489,4.824
57934,9.788,-2.045,0.247,-14.031,1.542,2.916
57985,9.681,-2.057,0.175,-13.939,1.74,0.817
58035,9.575,-2.076,0.216,-13.321,2.092,-2.023
58084,9.568,-2.069,-0.002,-12.519,2.931,-3.962
58134,9.59,-2.062,0.074,-11.626,4.26,-5.84
58184,9.53,-2.024,0.077,-10.55,5.916,-7.718
58234,9.491,-1.981,0.108,-9.641,7.496,-9.252
58285,9.551,-1.94,0.129,-9.504,8.748,-10.672
58335,9.542,-1.904,0.232,-9.481,9.412,-12.206
58385,9.518,-1.952,0.362,-10.015,9.672,-13.87
58435,9.671,-1.844,0.407,-11.206,9.374,-15.847
58485,9.753,-1.782,0.546,-12.55,8.771,-17.626
58535,9.812,-1.636,0.541,-14.275,8.328,-19.359
58586,9.817,-1.418,0.513,-15.924,8.237,-20.412
58635,9.944,-1.2,0.642,-17.71,7.809,-20.947
58685,10.011,-0.975,0.719,-19.573,7.771,-20.168
58735,10.126,-0.781,0.673,-21.183,7.634,-18.611
58785,10.188,-0.692,0.771,-22.939,7.176,-16.649
58835,10.263,-0.462,0.886,-24.84,6.008,-13.977
58886,10.186,-0.335,0.96,-26.733,4.588,-11.023
58935,10.22,-0.208,1.023,-28.611,2.725,-7.916
58985,10.196,-0.105,1.025,-30.389,0.145,-4.504
59035,10.162,-0.01,0.98,-31.786,-2.16,-0.321
59085,10.205,0.024,1.006,-33.137,-4.511,4.076
59136,10.174,0.05,0.874,-33.702,-6.321,8.725
59186,10.107,-0.022,0.754,-33.634,-7.863,13.427
59235,10.105,-0.125,0.627,-32.885,-8.962,17.901
59285,10.155,-0.369,0.493,-31.733,-9.565,21.786
59335,10.184,-0.616,0.335,-29.939,-9.786,24.634
59385,10.081,-0.941,0.275,-27.992,-9.45,26.099
59436,10.15,-1.262,0.18,-25.511,-9.153,26.397
59486,10.124,-1.533,0.079,-22.702,-8.176,25.473
59535,10.052,-1.847,-0.062,-19.664,-7.008,23.435
59585,10.061,-2.055,-0.115,-16.42,-5.412,20.611
59635,10.117,-2.218,-0.153,-13.527,-3.695,17.092
59685,10.021,-2.383,-0.213,-10.527,-1.817,13.282
59736,10.014,-2.412,-0.228,-7.695,0.221,9.183
59785,9.975,-2.51,-0.101,-5.023,1.779,4.969
59835,9.927,-2.52,-0.101,-2.954,3.542,0.519
59885,9.757,-2.443,-0.057,-0.87,4.847,-3.855
59935,9.719,-2.457,-0.05,1.008,6.328,-8.13
59985,9.669,-2.309,0.024,2.214,7.74,-12.053
60036,9.616,-2.134,0.101,3.504,8.71,-15.168
60085,9.664,-2.012,0.072,3.992,9.809,-17.519
60135,9.599,-1.787,0.259,4.313,10.183,-18.893
60185,9.563,-1.597,0.347,4.023,10.221,-19.557
60235,9.594,-1.399,0.465,3.824,9.847,-19.328
60285,9.585,-1.317,0.402,3.229,9.298,-18.725
60336,9.695,-1.224,0.568,1.954,8.626,-18.183
60385,9.669,-1.13,0.635,0.832,7.977,-17.779
60435,9.702,-1.059,0.651,-0.389,7.214,-17.183
60485,9.834,-0.932,0.63,-1.771,6.198,-16.756
60535,9.918,-0.781,0.663,-3.008,5.71,-15.595
60585,9.997,-0.606,0.757,-4.344,4.802,-13.672
60636,10.114,-0.517,0.75,-5.771,4.282,-11.008
60685,10.198,-0.345,0.829,-6.893,3.29,-7.832
60735,10.222,-0.371,0.778,-8.519,2.008,-4.527
60785,10.243,-0.393,0.869,-9.863,1.023,-1.481
60835,10.284,-0.505,0.843,-11.298,-0.359,1.115
60886,10.224,-0.517,0.798,-12.435,-2.282,3.351
60936,10.275,-0.539,0.884,-13.664,-3.603,5.267
60985,10.251,-0.58,0.766,-14.641,-5.0,7.099
61035,10.258,-0.505,0.68,-15.076,-5.733,9.015
61085,10.186,-0.558,0.575,-15.115,-6.282,11.42
61135,10.148,-0.62,0.481,-14.885,-6.817,14.031
61186,10.097,-0.783,0.426,-14.076,-6.802,16.397
61236,10.105,-0.956,0.295,-13.366,-6.611,18.344
61286,9.997,-1.164,0.29,-12.763,-6.45,19.382
61336,10.009,-1.471,0.316,-11.611,-6.145,19.374
61386,10.011,-1.655,0.201,-10.573,-5.71,18.427
61436,10.021,-1.871,0.194,-9.939,-4.924,16.359
61487,10.076,-1.99,0.115,-9.031,-4.115,13.626
61536,10.023,-2.124,0.017,-8.099,-3.053,10.649
61586,10.009,-2.213,0.06,-7.412,-2.053,7.214
61636,10.085,-2.227,0.117,-6.824,-0.847,4.061
61686,9.992,-2.189,0.086,-6.099,0.168,1.145
61736,9.949,-2.158,0.046,-5.412,1.267,-2.015
61787,9.93,-2.194,0.055,-4.71,2.298,-5.145
61836,9.985,-2.172,0.098,-3.908,3.351,-8.42
61886,9.877,-2.081,0.091,-3.305,4.466,-11.687
61936,9.896,-1.969,0.172,-2.511,5.237,-15.099
61986,9.839,-1.82,0.28,-1.763,5.786,-17.504
62080,9.786,-1.437,0.244,0.084,6.176,-19.687
62129,9.697,-1.243,0.352,1.344,5.84,-19.382
62178,9.736,-1.015,0.35,2.557,5.802,-18.198
62228,9.717,-0.862,0.359,4.336,5.557,-16.305
62278,9.724,-0.714,0.388,6.137,5.336,-13.924
62328,9.75,-0.639,0.402,8.046,5.595,-11.534
62379,9.769,-0.599,0.45,9.947,5.366,-9.16
62429,9.817,-0.661,0.455,11.634,5.496,-7.053
62478,9.918,-0.592,0.503,12.939,5.427,-5.137
62528,9.824,-0.599,0.51,13.855,5.191,-2.649
62578,10.011,-0.685,0.639,14.031,4.962,-0.588
62628,10.011,-0.649,0.644,13.878,4.13,1.687
62679,10.042,-0.786,0.709,12.954,3.153,3.626
62729,10.073,-0.833,0.747,11.321,2.29,5.16
62779,10.124,-0.968,0.774,9.534,0.954,6.122
62829,10.143,-1.042,0.766,6.969,-0.046,6.588
62879,10.114,-1.212,0.774,4.489,-1.496,6.473
62929,10.162,-1.207,0.714,1.908,-2.397,6.336
62980,10.143,-1.195,0.793,-0.527,-3.298,6.137
63029,10.22,-1.231,0.57,-2.901,-3.74,5.87
63079,10.196,-1.238,0.496,-4.74,-4.008,6.015
63129,10.167,-1.332,0.534,-6.366,-3.718,6.0
63179,10.164,-1.336,0.51,-7.763,-3.496,6.031
63229,10.129,-1.382,0.51,-9.214,-3.153,5.756
63280,10.057,-1.437,0.443,-10.145,-2.992,5.443
63329,10.105,-1.425,0.52,-11.443,-3.412,5.031
63379,10.076,-1.449,0.525,-12.206,-3.733,4.282
63429,10.071,-1.461,0.477,-12.901,-4.16,3.725
63479,10.047,-1.497,0.393,-13.374,-4.702,2.863
63529,10.038,-1.557,0.388,-13.084,-4.916,2.542
63580,10.105,-1.461,0.263,-12.611,-4.656,1.824
63629,10.148,-1.557,0.213,-11.511,-3.962,1.214
63679,10.186,-1.478,0.108,-10.198,-2.992,0.29
63729,10.109,-1.605,0.156,-8.305,-1.649,-0.649
63779,10.119,-1.65,0.153,-5.985,-0.603,-2.069
63830,10.078,-1.574,0.101,-3.771,0.443,-3.282
63880,9.997,-1.569,0.17,-1.198,1.16,-4.756
63929,9.913,-1.566,0.223,1.16,1.443,-5.794
63979,9.92,-1.542,0.137,3.878,2.023,-6.626
64029,9.872,-1.358,0.153,6.74,2.313,-6.748
64079,9.822,-1.377,0.046,9.519,3.061,-6.779
64130,9.736,-1.272,0.139,12.26,3.725,-6.42
64180,9.793,-1.19,0.165,15.0,4.863,-5.878
64230,9.693,-1.186,0.187,17.229,5.962,-5.336
64280,9.702,-1.226,0.223,19.183,6.481,-4.718
64330,9.678,-1.221,0.35,20.099,6.87,-4.382
64380,9.681,-1.205,0.405,20.58,6.687,-3.969
64431,9.798,-1.212,0.498,19.947,6.206,-3.519
64480,9.796,-1.269,0.608,18.313,5.908,-3.107
64530,9.882,-1.277,0.663,16.137,5.115,-3.008
64580,9.894,-1.336,0.709,13.092,4.069,-2.924
64630,9.901,-1.37,0.79,9.542,3.107,-3.267
64680,9.97,-1.418,0.85,5.702,1.977,-4.015
64731,9.97,-1.48,0.774,1.55,0.74,-4.985
64780,10.021,-1.432,0.802,-2.176,-0.58,-6.076
64830,10.066,-1.372,0.829,-6.122,-1.954,-6.748
64880,10.117,-1.219,0.75,-9.069,-3.069,-7.344
64930,10.129,-1.145,0.702,-11.519,-4.359,-7.244
64980,10.129,-1.013,0.618,-12.74,-5.198,-6.664
65031,10.152,-0.913,0.534,-12.939,-5.427,-5.458
65080,10.176,-0.901,0.393,-12.321,-5.252,-3.893
65130,10.241,-0.754,0.297,-10.702,-4.863,-2.198
65180,10.279,-0.817,0.29,-8.405,-3.618,-0.481
65230,10.234,-0.671,0.28,-5.809,-2.878,1.0
65281,10.275,-0.673,0.314,-2.84,-2.168,3.023
65331,10.27,-0.695,0.302,0.145,-1.641,5.0
65380,10.22,-0.692,0.342,2.58,-1.656,7.076
65430,10.2,-0.754,0.357,4.863,-1.824,9.412
65480,10.239,-0.817,0.374,6.901,-1.863,11.656
65530,10.167,-1.011,0.414,8.473,-1.718,13.267
65581,10.157,-1.181,0.357,9.603,-1.221,14.389
65631,10.15,-1.36,0.347,10.122,-0.71,14.702
65681,10.107,-1.581,0.314,9.855,-0.137,14.076
65731,10.026,-1.693,0.402,9.137,-0.16,12.344
65781,10.004,-1.875,0.489,7.802,-0.282,10.221
65831,9.954,-1.894,0.515,5.947,-0.565,7.985
65882,9.882,-2.002,0.51,3.771,-1.069,5.511
65931,9.856,-1.962,0.445,1.489,-1.42,3.145
65981,9.803,-2.048,0.441,-0.519,-1.473,0.824
66031,9.729,-2.069,0.307,-2.29,-1.168,-1.405
66081,9.731,-2.088,0.189,-3.656,-0.924,-3.855
66131,9.635,-2.014,0.228,-4.573,-0.42,-6.176
66182,9.606,-2.091,0.24,-5.305,0.29,-8.359
66231,9.494,-2.0,0.216,-5.443,1.504,-10.405
66281,9.556,-1.887,0.187,-5.008,2.176,-12.427
66331,9.59,-1.83,0.177,-4.389,3.137,-14.206
66381,9.662,-1.729,0.24,-3.718,3.626,-15.382
66432,9.635,-1.54,0.223,-3.115,4.084,-16.336
66482,9.762,-1.432,0.417,-2.031,4.366,-16.664
66531,9.808,-1.32,0.304,-1.107,4.87,-16.489
66581,9.901,-1.181,0.357,-0.374,5.099,-15.924
66631,9.961,-1.099,0.474,0.328,5.328,-15.206
66681,9.987,-1.063,0.393,0.916,5.229,-14.557
66732,10.133,-0.929,0.527,1.504,4.924,-13.893
66782,10.215,-0.798,0.604,1.718,4.366,-12.901
66831,10.15,-0.776,0.606,1.962,3.458,-11.725
66881,10.208,-0.575,0.647,2.191,2.542,-9.718
66931,10.255,-0.441,0.671,2.603,1.611,-7.137
66981,10.176,-0.309,0.683,2.878,0.466,-4.115
67032,10.263,-0.304,0.687,3.748,-0.298,-0.832
67081,10.366,-0.261,0.616,4.145,-0.855,2.718
67131,10.313,-0.342,0.58,5.282,-1.298,6.214
67181,10.279,-0.347,0.565,6.176,-1.557,9.183
67231,10.232,-0.472,0.568,7.252,-1.779,12.107
67281,10.251,-0.525,0.596,8.038,-2.092,14.664
67332,10.191,-0.716,0.491,8.374,-2.115,16.84
67381,10.129,-0.865,0.541,8.595,-2.191,18.618
67431,10.16,-0.958,0.568,7.878,-1.908,20.214
67481,10.162,-1.193,0.599,6.71,-2.107,21.229
67531,10.054,-1.399,0.57,4.847,-2.244,21.481
67581,10.073,-1.617,0.625,2.137,-2.542,20.893
67632,10.04,-1.875,0.575,-0.847,-3.191,19.282
67681,10.038,-2.096,0.527,-4.275,-3.908,16.985
67731,10.018,-2.223,0.551,-7.718,-4.763,13.71
67781,9.99,-2.424,0.462,-11.221,-5.137,9.687
67831,9.954,-2.445,0.4,-13.985,-5.351,5.206
67881,9.86,-2.472,0.232,-16.229,-5.137,0.664
67932,9.786,-2.448,0.125,-17.214,-4.496,-3.557
67981,9.729,-2.445,0.06,-17.252,-3.115,-7.695
68031,9.599,-2.373,0.026,-16.328,-1.84,-11.328
68081,9.539,-2.213,-0.072,-14.046,-0.031,-14.443
68131,9.527,-2.079,-0.177,-11.206,1.771,-16.809
68182,9.489,-1.873,-0.091,-7.427,3.679,-19.122
68232,9.482,-1.808,-0.177,-3.328,5.58,-20.557
68281,9.46,-1.619,-0.137,1.031,7.405,-21.74
68331,9.537,-1.439,-0.089,5.359,8.733,-22.275
68381,9.602,-1.308,0.038,9.115,9.649,-22.305
68431,9.7,-1.037,0.201,12.336,10.015,-21.618
68482,9.812,-0.896,0.371,14.947,10.229,-20.389
68532,9.887,-0.769,0.486,16.656,9.977,-18.786
68582,9.97,-0.541,0.486,17.985,9.26,-16.427
68632,10.011,-0.467,0.644,18.168,8.573,-14.038
68682,10.117,-0.376,0.69,18.0,7.282,-11.046
68732,10.215,-0.208,0.893,17.153,5.939,-7.908
68783,10.346,-0.28,0.948,15.748,4.214,-4.588
68832,10.22,-0.254,0.996,14.298,2.053,-1.176
68882,10.318,-0.256,0.922,12.336,0.023,2.328
68932,10.277,-0.352,0.996,10.496,-2.008,5.893
68982,10.284,-0.362,0.944,8.664,-3.954,8.954
69032,10.234,-0.501,0.86,7.267,-5.26,11.908
69083,10.212,-0.654,0.719,6.061,-6.153,14.076
69132,10.255,-0.759,0.635,5.282,-6.611,15.733
69182,10.196,-0.987,0.536,4.855,-6.58,16.725
69232,10.164,-1.128,0.465,4.756,-6.351,17.542
69282,10.119,-1.243,0.436,4.779,-5.939,17.626
69332,10.107,-1.411,0.455,4.947,-5.733,17.573
69383,10.059,-1.483,0.34,4.992,-5.405,17.061
69432,10.028,-1.715,0.333,5.351,-4.916,16.115
69482,9.982,-1.801,0.223,5.374,-4.664,14.824
69532,9.994,-1.957,0.266,5.366,-3.725,12.817
69582,9.978,-1.926,0.328,5.359,-2.771,10.527
69633,10.002,-2.045,0.199,4.885,-1.87,8.183
69683,9.889,-2.144,0.211,4.221,-0.771,5.55
69732,10.014,-2.177,0.321,3.443,0.076,2.817
69782,9.968,-2.163,0.177,2.45,0.779,-0.137
69832,10.009,-2.285,0.283,1.122,1.031,-3.229
69882,9.947,-2.235,0.412,-0.237,1.374,-6.725
69933,9.884,-2.187,0.342,-1.618,1.496,-10.092
69983,9.812,-2.172,0.335,-2.824,1.611,-13.519
70033,9.829,-2.007,0.247,-3.534,2.153,-16.313
70083,9.774,-1.856,0.187,-4.176,2.824,-18.55
70133,9.755,-1.597,0.295,-4.153,3.534,-19.809
70183,9.729,-1.492,0.196,-4.344,4.26,-20.42
70234,9.633,-1.382,0.393,-4.137,4.947,-20.58
70283,9.618,-1.174,0.369,-3.756,5.168,-20.13
70333,9.659,-1.006,0.515,-3.313,4.786,-19.298
70383,9.681,-0.874,0.568,-3.107,4.466,-18.076
70433,9.724,-0.692,0.46,-2.756,3.58,-16.29
70483,9.834,-0.647,0.592,-2.389,2.771,-14.008
70534,9.836,-0.448,0.637,-2.031,1.985,-11.298
70583,9.956,-0.417,0.556,-1.588,1.397,-8.26
70633,10.038,-0.405,0.582,-0.962,0.626,-5.16
70683,10.033,-0.422,0.654,-0.275,-0.046,-1.916
70733,10.133,-0.395,0.627,0.336,-0.771,1.176
70784,10.176,-0.422,0.651,0.863,-1.634,4.305
70834,10.215,-0.527,0.678,1.504,-2.427,7.359
70883,10.21,-0.639,0.52,2.313,-2.954,10.198
70933,10.217,-0.719,0.572,3.061,-3.481,12.611
70983,10.236,-0.956,0.453,3.748,-3.603,13.832
71033,10.169,-1.236,0.431,4.504,-3.405,14.313
71084,10.152,-1.377,0.453,5.435,-3.008,13.702
71134,10.119,-1.485,0.309,5.985,-2.427,12.214
71183,10.121,-1.571,0.366,6.733,-1.878,10.817
71233,10.16,-1.54,0.254,7.122,-1.099,9.351
71283,10.126,-1.557,0.369,7.718,-0.878,8.198
71333,10.102,-1.547,0.381,7.916,-0.435,7.229
71384,10.076,-1.619,0.304,8.053,0.069,6.344
71433,9.942,-1.677,0.354,8.198,0.305,5.565
71483,10.028,-1.705,0.299,8.046,0.824,4.237
71533,10.038,-1.744,0.237,7.756,1.397,2.954
71583,10.04,-1.72,0.347,7.053,1.84,1.527
71633,10.035,-1.691,0.374,6.412,2.321,0.336
71684,10.028,-1.653,0.414,5.244,2.489,-0.71
71733,10.05,-1.576,0.556,3.58,2.626,-1.252
71783,10.064,-1.562,0.553,1.435,2.42,-1.87
71833,10.081,-1.621,0.58,-0.664,1.885,-2.412
71883,10.038,-1.636,0.525,-2.893,1.511,-3.687
71933,10.018,-1.688,0.572,-5.527,1.099,-4.824
71984,9.906,-1.672,0.553,-8.031,0.725,-6.053
72033,9.82,-1.609,0.546,-10.244,0.389,-7.542
72083,9.815,-1.576,0.563,-12.328,0.008,-8.702
72133,9.767,-1.578,0.467,-14.053,0.008,-9.817
72183,9.753,-1.478,0.472,-15.344,-0.481,-10.595
72233,9.717,-1.435,0.474,-16.183,-0.427,-10.992
72284,9.7,-1.344,0.354,-16.382,-0.435,-11.0
72333,9.697,-1.265,0.426,-16.023,-0.397,-10.588
72383,9.688,-1.19,0.34,-15.252,-0.221,-10.237
72433,9.798,-1.085,0.371,-14.137,-0.023,-9.198
72483,9.76,-1.001,0.386,-12.389,0.344,-8.038
72534,9.879,-0.992,0.34,-10.733,0.58,-6.916
72584,9.923,-0.951,0.275,-8.534,0.977,-5.527
72633,9.875,-0.929,0.304,-6.71,1.344,-4.504
72683,9.925,-0.994,0.359,-4.733,1.42,-3.389
72733,10.035,-0.932,0.34,-2.672,1.534,-2.366
72783,10.047,-0.896,0.378,-0.977,1.466,-1.107
72834,10.109,-0.853,0.448,0.481,1.649,0.763
72884,10.138,-0.884,0.453,1.901,1.473,2.282
72934,10.184,-1.02,0.407,2.939,1.267,3.756
72984,10.222,-1.106,0.309,3.901,1.405,4.412
73034,10.241,-1.217,0.419,4.748,1.542,4.191
73084,10.296,-1.265,0.402,5.099,1.595,3.443
73135,10.193,-1.382,0.433,5.45,1.802,2.305
73184,10.239,-1.308,0.41,5.649,1.87,1.298
73234,10.191,-1.195,0.393,5.656,1.916,0.71
73284,10.191,-1.114,0.522,5.45,1.977,1.13
73334,10.215,-1.004,0.498,5.542,1.649,2.275
73384,10.186,-0.992,0.503,5.031,1.214,3.771
73435,10.155,-0.972,0.52,4.756,0.947,5.382
73484,10.188,-1.02,0.587,4.382,0.458,6.573
73534,10.145,-1.054,0.532,3.786,0.084,7.885
73584,10.152,-1.198,0.51,3.183,-0.168,8.458
73634,10.143,-1.279,0.551,2.382,-0.344,9.221
73684,10.117,-1.329,0.467,1.282,-0.473,9.389
73735,10.023,-1.454,0.536,-0.084,-0.092,9.206
73784,10.004,-1.554,0.587,-1.489,0.0,8.58
73834,10.083,-1.698,0.515,-3.458,0.092,7.328
73884,9.913,-1.748,0.508,-5.74,-0.061,5.702
73934,9.913,-1.868,0.508,-8.099,-0.313,3.87
73985,9.832,-1.904,0.616,-10.565,-1.0,1.611
74035,9.798,-1.995,0.496,-13.038,-1.099,-0.473
74084,9.762,-2.024,0.338,-15.053,-1.466,-2.924
74134,9.635,-1.947,0.422,-16.786,-1.542,-5.641
74184,9.539,-1.971,0.335,-17.817,-1.038,-7.847
74234,9.609,-1.902,0.163,-18.237,-0.26,-9.901
74285,9.549,-1.799,0.22,-18.176,0.84,-11.542
74335,9.597,-1.677,0.192,-17.802,1.771,-12.504
74385,9.606,-1.597,0.244,-16.458,2.397,-13.412
74435,9.678,-1.533,0.182,-15.229,3.046,-13.901
74485,9.678,-1.372,0.18,-13.71,3.55,-14.435
74535,9.769,-1.3,0.192,-12.008,3.893,-14.298
74586,9.774,-1.195,0.319,-10.053,4.244,-13.977
74635,9.982,-1.092,0.314,-8.359,4.763,-13.374
74685,10.016,-0.946,0.369,-6.534,4.969,-12.336
74735,10.141,-0.881,0.457,-4.977,5.145,-10.74
74785,10.152,-0.707,0.453,-3.611,5.168,-8.939
74835,10.203,-0.663,0.532,-2.504,4.763,-6.557
74886,10.21,-0.635,0.592,-1.87,4.183,-4.145
74935,10.26,-0.666,0.608,-1.244,3.588,-2.008
74985,10.265,-0.747,0.608,-1.015,2.809,-0.305
75035,10.303,-0.776,0.659,-0.718,2.26,1.0
75085,10.22,-0.788,0.673,-0.733,1.656,1.939
75136,10.272,-0.757,0.62,-0.908,1.107,3.137
75186,10.287,-0.639,0.611,-0.794,0.519,4.756
75235,10.282,-0.642,0.532,-0.763,-0.023,6.84
75285,10.282,-0.647,0.618,-0.863,-0.527,9.412
75335,10.239,-0.639,0.606,-0.962,-1.351,11.939
75385,10.22,-0.857,0.647,-1.198,-1.771,14.122
75436,10.16,-0.946,0.496,-1.405,-2.481,15.924
75486,10.148,-1.075,0.525,-1.809,-2.756,16.756
75535,10.085,-1.298,0.453,-1.985,-2.962,17.252
75585,10.083,-1.454,0.472,-2.244,-2.931,17.29
75635,10.088,-1.516,0.417,-2.855,-2.695,16.817
75685,10.026,-1.787,0.345,-3.504,-2.214,15.504
75736,9.944,-1.89,0.237,-4.626,-1.305,13.756
75785,9.913,-2.112,0.297,-5.519,-0.779,11.405
75835,9.836,-2.23,0.242,-7.099,-0.313,8.489
75885,9.836,-2.321,0.338,-8.634,0.206,4.985
75935,9.726,-2.369,0.297,-10.16,0.267,1.42
75985,9.781,-2.443,0.309,-11.725,0.328,-2.748
76036,9.75,-2.405,0.182,-12.908,0.824,-6.473
76085,9.614,-2.326,0.163,-13.977,1.611,-10.298
76135,9.585,-2.139,0.144,-14.321,2.947,-13.641
76185,9.551,-2.122,0.213,-14.611,4.481,-16.466
76235,9.556,-1.947,0.196,-14.473,5.809,-18.321
76285,9.563,-1.775,0.29,-14.336,7.046,-19.557
76336,9.561,-1.609,0.347,-14.183,7.458,-20.366
76385,9.621,-1.463,0.422,-14.244,7.618,-20.87
76435,9.659,-1.269,0.551,-14.115,7.214,-20.893
76485,9.767,-1.075,0.539,-14.008,6.779,-20.374
76535,9.867,-0.836,0.63,-13.885,6.244,-19.221
76585,9.846,-0.726,0.627,-13.672,5.397,-16.977
76636,10.047,-0.606,0.536,-13.58,4.962,-14.756
76685,10.059,-0.457,0.63,-13.26,4.412,-12.015
76735,10.162,-0.393,0.647,-12.969,3.916,-8.947
76785,10.181,-0.347,0.714,-12.481,3.351,-5.405
76835,10.255,-0.244,0.663,-12.191,2.779,-1.802
76886,10.279,-0.41,0.709,-12.29,2.092,1.565
76936,10.21,-0.443,0.697,-12.496,1.13,4.565
76985,10.222,-0.563,0.709,-12.527,0.145,6.924
77035,10.267,-0.647,0.747,-13.267,-0.931,8.725
77085,10.287,-0.692,0.709,-13.489,-2.023,10.153
77135,10.251,-0.73,0.656,-13.74,-3.176,11.695
77186,10.212,-0.774,0.589,-14.076,-4.107,13.061
77236,10.191,-0.824,0.496,-13.702,-4.687,14.687
77286,10.176,-0.946,0.457,-13.641,-4.901,16.122
77336,10.155,-1.032,0.438,-12.855,-4.763,17.237
77386,10.057,-1.267,0.326,-12.252,-4.382,17.58
77436,10.069,-1.396,0.35,-11.359,-4.282,17.504
77487,10.052,-1.564,0.225,-10.29,-3.802,16.496
77536,9.97,-1.72,0.24,-9.29,-3.489,15.298
77586,9.997,-1.791,0.165,-8.366,-3.038,13.885
77636,10.016,-1.916,0.127,-7.252,-2.466,12.168
77686,10.042,-2.009,0.055,-6.214,-1.679,10.359
77736,9.877,-2.144,0.065,-5.107,-0.427,7.779
77787,9.956,-2.23,-0.022,-4.214,0.817,4.931
77836,9.884,-2.393,0.01,-3.412,2.473,1.374
77886,9.896,-2.357,0.093,-2.901,4.092,-2.534
77936,9.865,-2.333,0.101,-2.664,5.344,-6.87
77986,9.829,-2.249,0.098,-2.756,6.542,-10.443
78036,9.729,-2.184,0.251,-3.061,7.221,-13.962
78087,9.755,-1.988,0.23,-3.847,7.557,-16.557
78136,9.685,-1.928,0.326,-4.634,7.954,-18.725
78186,9.664,-1.681,0.417,-5.962,8.328,-20.153
78236,9.611,-1.449,0.357,-7.466,8.405,-20.435
78286,9.685,-1.346,0.572,-8.725,8.038,-20.137
78337,9.733,-1.188,0.668,-10.733,7.664,-19.511
78387,9.678,-1.078,0.759,-12.16,6.84,-18.802
78436,9.784,-0.917,0.685,-13.756,5.481,-17.832
78486,9.846,-0.764,0.85,-15.153,4.244,-16.489
78536,9.92,-0.709,0.788,-16.374,3.504,-14.412
78586,9.961,-0.51,0.671,-17.267,2.374,-11.687
78637,10.04,-0.455,0.719,-17.702,1.908,-8.725
78687,10.121,-0.376,0.697,-17.954,1.313,-5.435
78737,10.215,-0.354,0.659,-17.931,0.763,-1.763
78787,10.246,-0.316,0.637,-17.74,-0.023,1.786
78837,10.234,-0.438,0.702,-17.573,-0.977,4.924
78887,10.26,-0.613,0.625,-17.359,-1.802,7.565
78938,10.284,-0.647,0.644,-17.061,-2.74,9.397
78987,10.232,-0.814,0.63,-16.786,-3.137,10.328
79037,10.138,-0.946,0.513,-16.344,-3.298,10.756
79087,10.205,-1.063,0.374,-15.557,-3.496,11.221
79137,10.145,-1.051,0.433,-14.687,-3.229,11.443
79187,10.129,-1.111,0.29,-13.931,-2.962,11.649
79238,10.073,-1.176,0.302,-12.916,-2.756,12.321
79287,10.102,-1.291,0.402,-11.939,-2.55,13.023
79337,10.162,-1.324,0.338,-11.191,-2.366,13.168
79387,10.066,-1.468,0.259,-10.603,-2.267,13.038
79437,10.073,-1.609,0.287,-10.092,-1.954,12.214
79488,10.069,-1.641,0.24,-9.664,-1.534,10.702
79538,10.09,-1.758,0.261,-9.282,-1.305,9.092
79587,10.064,-1.717,0.295,-9.13,-1.107,7.45
79637,9.982,-1.823,0.278,-9.031,-0.733,5.908
79687,10.047,-1.823,0.153,-8.649,-0.45,4.534
79737,10.018,-1.892,0.218,-8.496,0.244,2.809
79788,10.004,-1.962,0.122,-8.244,0.901,1.023
79838,9.949,-2.017,0.225,-7.74,2.237,-1.26
79887,9.908,-2.021,0.216,-7.435,3.099,-3.55
79937,9.86,-1.954,0.189,-7.206,3.87,-6.458
79987,9.875,-1.971,0.292,-7.099,4.298,-9.015
80037,9.772,-1.878,0.28,-6.618,4.855,-11.412
80088,9.724,-1.756,0.271,-6.389,5.504,-13.511
80137,9.709,-1.571,0.275,-6.076,5.641,-14.908
80187,9.769,-1.48,0.319,-5.687,6.069,-15.435
80237,9.659,-1.296,0.4,-5.076,6.237,-15.191
80287,9.623,-1.262,0.369,-4.595,6.107,-14.359
80337,9.688,-1.102,0.453,-3.84,6.344,-13.55
80388,9.657,-1.095,0.477,-3.412,6.153,-12.557
80437,9.757,-1.001,0.501,-2.824,5.809,-11.824
80487,9.812,-0.891,0.469,-2.427,5.733,-10.748
80537,9.827,-0.824,0.517,-2.153,5.511,-9.168
80587,9.987,-0.771,0.51,-1.687,5.16,-7.221
80637,10.061,-0.671,0.575,-1.786,4.656,-5.038
80688,10.097,-0.661,0.639,-2.229,4.061,-2.84
80737,10.148,-0.738,0.649,-3.069,3.214,-0.763
80787,10.169,-0.831,0.769,-3.855,2.443,1.168
80837,10.232,-0.855,0.707,-5.015,1.122,2.649
80887,10.196,-0.963,0.704,-6.427,-0.031,3.824
80937,10.227,-0.948,0.728,-7.71,-0.672,4.359
80988,10.227,-1.061,0.644,-8.908,-1.229,4.84
81037,10.232,-1.099,0.493,-10.076,-1.519,4.916
81087,10.239,-1.035,0.558,-11.198,-1.275,5.328
81137,10.227,-1.116,0.577,-12.237,-1.267,5.771
81187,10.141,-1.109,0.501,-13.359,-1.511,6.237
81238,10.164,-1.109,0.584,-14.679,-1.962,6.901
81288,10.131,-1.166,0.589,-15.794,-2.664,7.481
81337,10.143,-1.205,0.618,-16.992,-3.634,8.0
81387,10.133,-1.334,0.541,-18.389,-4.405,7.878
81437,10.1,-1.308,0.462,-19.069,-4.794,7.718
81487,10.102,-1.387,0.395,-19.473,-5.198,7.282
81538,10.129,-1.341,0.426,-19.542,-5.092,6.802
81588,10.04,-1.356,0.316,-18.985,-5.252,6.595
81638,10.035,-1.413,0.378,-17.931,-5.282,6.55
81688,10.093,-1.499,0.218,-16.336,-4.87,6.397
81738,9.949,-1.605,0.208,-14.511,-4.298,6.13
81788,10.03,-1.715,0.036,-11.817,-3.626,5.443
81839,9.911,-1.803,0.05,-8.893,-2.45,3.718
81888,9.887,-1.83,-0.038,-5.443,-0.855,1.939
81938,9.827,-1.93,-0.103,-1.664,0.809,-0.527
81988,9.81,-1.887,-0.101,2.015,2.893,-2.992
82038,9.767,-1.859,-0.038,5.275,4.748,-5.237
82088,9.724,-1.756,-0.002,8.611,6.359,-6.924
82139,9.729,-1.717,0.062,11.328,7.748,-8.679
82188,9.556,-1.621,0.237,13.176,8.496,-9.702
82238,9.659,-1.523,0.297,14.519,8.832,-10.473
82288,9.602,-1.499,0.354,15.008,8.634,-10.893
82338,9.638,-1.492,0.501,14.992,8.595,-11.137
82388,9.673,-1.492,0.481,14.008,8.282,-11.977
82439,9.721,-1.368,0.527,12.695,7.695,-12.351
82488,9.733,-1.267,0.764,10.771,7.107,-12.588
82538,9.887,-1.133,0.714,8.687,5.901,-12.023
82588,9.918,-1.061,0.695,6.046,4.954,-11.321
82638,10.002,-0.951,0.752,3.58,3.71,-9.733
82689,10.117,-0.922,0.848,1.031,2.817,-8.29
82739,10.174,-0.867,0.807,-1.634,1.206,-6.924
82788,10.152,-0.893,0.74,-3.893,0.107,-5.595
82838,10.229,-0.929,0.781,-5.573,-1.115,-4.618
82888,10.239,-0.917,0.683,-7.183,-1.786,-3.565
82938,10.342,-0.881,0.663,-8.168,-2.389,-2.718
82989,10.243,-0.833,0.558,-8.809,-2.458,-1.771
83039,10.289,-0.814,0.462,-9.008,-2.359,-0.229
83089,10.239,-0.74,0.546,-9.0,-2.336,1.443
83139,10.243,-0.642,0.529,-8.84,-2.382,3.595
83189,10.164,-0.716,0.625,-8.672,-2.84,5.672
83239,10.155,-0.826,0.534,-8.595,-3.534,7.618
83290,10.157,-0.92,0.608,-8.29,-4.229,8.817
83339,10.133,-0.877,0.589,-8.405,-4.916,9.885
83389,10.162,-1.047,0.505,-8.061,-5.412,10.443
83439,10.15,-1.114,0.419,-7.695,-5.672,10.802
83489,10.088,-1.114,0.467,-6.962,-5.687,11.313
83539,10.105,-1.188,0.316,-6.221,-5.412,11.931
83590,10.04,-1.209,0.235,-5.107,-5.153,12.527
83639,10.112,-1.32,0.29,-3.809,-5.122,13.397
83689,10.006,-1.523,0.218,-2.618,-4.71,13.313
83739,9.942,-1.722,0.249,-1.382,-4.328,12.55
83789,9.884,-1.914,0.223,0.031,-3.45,10.74
83840,9.856,-2.127,0.026,1.557,-2.099,7.931
83890,9.796,-2.17,-0.038,3.008,-0.695,4.305
83939,9.844,-2.242,0.067,4.084,0.733,0.779
83989,9.738,-2.12,0.014,5.252,2.038,-3.053
84039,9.745,-2.117,0.055,6.092,3.305,-6.107
84089,9.719,-2.041,0.158,6.74,4.42,-8.496
84140,9.657,-1.875,0.213,6.924,5.099,-9.916
84190,9.628,-1.801,0.304,6.977,5.382,-11.435
84239,9.573,-1.871,0.398,6.443,5.473,-12.542
84289,9.611,-1.76,0.314,6.069,5.389,-13.771
84339,9.611,-1.672,0.388,5.122,5.176,-15.115
84389,9.676,-1.65,0.381,4.191,5.031,-16.969
84440,9.707,-1.55,0.436,3.351,4.832,-18.16
84489,9.717,-1.245,0.541,2.649,4.466,-18.664
84539,9.872,-1.025,0.515,2.206,3.992,-18.008
84589,9.891,-0.843,0.498,1.87,3.718,-16.328
84639,10.026,-0.747,0.618,2.069,2.794,-13.817
84689,10.093,-0.63,0.572,2.252,2.282,-11.26
84740,10.181,-0.687,0.551,2.87,1.916,-8.656
84789,10.205,-0.704,0.625,3.389,1.351,-6.626
84839,10.301,-0.719,0.575,4.122,1.229,-4.87
84889,10.313,-0.771,0.532,5.031,1.305,-3.527
84939,10.325,-0.723,0.45,5.809,1.328,-2.244
84989,10.325,-0.711,0.534,6.542,1.45,-0.824
85040,10.385,-0.687,0.587,6.504,1.252,0.695
85089,10.303,-0.625,0.656,6.847,0.893,2.84
85139,10.267,-0.623,0.738,6.489,-0.076,5.015
85189,10.311,-0.587,0.829,5.748,-0.779,7.573
85239,10.243,-0.642,0.644,5.015,-1.74,9.878
85289,10.248,-0.826,0.697,3.885,-2.725,11.954
85340,10.172,-0.891,0.728,2.603,-3.489,13.42
85389,10.164,-1.061,0.721,1.26,-4.29,14.244
85439,10.184,-1.205,0.644,-0.252,-4.71,14.427
85489,10.052,-1.269,0.553,-1.588,-5.267,14.229
85539,10.035,-1.332,0.546,-2.771,-5.534,14.557
85590,10.03,-1.415,0.503,-3.802,-5.847,14.573
85640,9.944,-1.449,0.347,-4.855,-6.084,14.802
85689,9.968,-1.645,0.345,-5.595,-6.267,14.641
85739,9.911,-1.861,0.232,-5.939,-6.191,13.718
85789,9.858,-2.086,0.208,-5.924,-5.733,11.588
85839,9.834,-2.249,-0.007,-5.977,-4.641,8.534
85890,9.81,-2.364,0.053,-5.397,-3.527,4.336
85940,9.798,-2.397,0.024,-4.519,-1.595,-0.198
85990,9.793,-2.302,-0.012,-3.29,-0.382,-4.481
86040,9.69,-2.232,-0.081,-1.977,1.13,-7.992
86090,9.606,-2.067,-0.012,-0.786,2.275,-10.588
86140,9.618,-1.93,0.077,0.611,3.588,-12.359
86191,9.618,-1.808,0.055,2.26,4.206,-13.626
86240,9.554,-1.732,0.098,3.534,4.908,-14.427
86290,9.561,-1.772,0.206,4.71,5.214,-15.458
86340,9.566,-1.641,0.182,5.947,5.618,-16.405
86390,9.628,-1.621,0.199,6.855,6.191,-17.58
86440,9.659,-1.459,0.311,7.718,6.328,-18.634
86491,9.774,-1.26,0.321,8.206,6.305,-18.985
86540,9.841,-1.092,0.4,8.931,5.794,-18.206
86590,9.894,-0.855,0.525,9.374,5.557,-16.466
86640,10.018,-0.783,0.558,9.679,4.702,-14.328
86690,10.097,-0.769,0.601,9.817,4.183,-12.16
86740,10.179,-0.781,0.608,10.031,3.45,-10.092
86791,10.267,-0.709,0.577,10.023,2.947,-8.427
86840,10.375,-0.704,0.62,10.122,2.145,-6.794
86890,10.387,-0.697,0.661,10.115,1.84,-5.351
86940,10.344,-0.687,0.687,9.649,1.679,-3.695
86990,10.461,-0.57,0.601,9.557,1.206,-1.962
87041,10.435,-0.613,0.719,8.901,0.573,0.115
87091,10.406,-0.546,0.719,8.359,-0.481,2.344
87140,10.323,-0.589,0.726,7.84,-1.359,4.519
87190,10.335,-0.563,0.766,7.153,-2.542,7.099
87240,10.275,-0.663,0.683,6.336,-3.718,9.481
87290,10.229,-0.709,0.687,5.656,-4.573,11.42
87341,10.179,-0.824,0.613,5.229,-5.153,13.145
87391,10.203,-0.944,0.577,4.962,-5.168,14.481
87441,10.138,-1.042,0.481,5.031,-5.252,15.473
87491,10.081,-1.109,0.484,4.954,-5.382,16.038
87541,10.076,-1.207,0.388,4.924,-5.214,16.55
87591,9.935,-1.315,0.412,4.977,-5.282,16.977
87642,9.963,-1.418,0.364,4.901,-5.023,17.435
87691,9.856,-1.633,0.331,4.847,-4.87,17.405
87741,9.856,-1.878,0.297,4.855,-4.382,16.55
87791,9.82,-2.127,0.208,4.267,-3.779,14.641
87841,9.757,-2.206,0.069,3.885,-2.718,11.412
87891,9.76,-2.364,0.156,3.496,-1.672,7.511
87942,9.626,-2.429,0.117,2.542,-0.573,3.0
87991,9.664,-2.448,0.101,1.679,0.504,-1.229
88041,9.664,-2.366,0.153,0.809,1.511,-5.046
88091,9.64,-2.318,0.213,-0.267,2.282,-8.382
88141,9.64,-2.184,0.242,-1.267,2.725,-11.214
88192,9.592,-2.132,0.208,-2.489,3.42,-13.244
88242,9.53,-2.019,0.378,-3.626,3.634,-14.794
88291,9.563,-1.93,0.422,-4.649,3.985,-16.29
88341,9.52,-1.83,0.448,-5.542,4.168,-17.954
88391,9.585,-1.787,0.333,-6.473,4.527,-19.55
88441,9.662,-1.578,0.443,-7.336,4.893,-20.84
88492,9.733,-1.389,0.441,-7.962,4.924,-21.42
88542,9.875,-1.212,0.51,-8.198,5.038,-21.046
88591,9.958,-1.056,0.453,-8.802,4.718,-19.885
88641,10.045,-0.929,0.575,-9.122,4.267,-18.504
88691,10.088,-0.879,0.582,-9.069,3.313,-16.71
88741,10.208,-0.819,0.56,-9.122,2.344,-15.344
88792,10.255,-0.735,0.587,-8.588,1.412,-13.809
88841,10.344,-0.618,0.515,-7.573,1.076,-12.405
88891,10.382,-0.477,0.486,-6.153,1.031,-10.084
88941,10.404,-0.45,0.448,-4.664,1.237,-7.504
88991,10.409,-0.354,0.496,-3.023,1.695,-4.489
89113,10.33,-0.321,0.587,1.359,1.931,3.489
89163,10.224,-0.369,0.675,2.519,1.374,6.527
89213,10.279,-0.417,0.649,3.496,0.13,9.435
89264,10.255,-0.496,0.709,3.985,-0.977,12.198
89313,10.21,-0.513,0.687,4.481,-2.16,14.87
89363,10.148,-0.587,0.639,4.901,-3.137,17.16
89413,10.138,-0.752,0.508,5.13,-3.588,19.252
89463,10.066,-0.874,0.572,5.405,-3.664,21.031
89513,10.148,-1.056,0.41,5.328,-3.313,22.359
89564,10.016,-1.193,0.484,4.878,-3.015,23.069
89613,9.935,-1.36,0.398,4.008,-2.878,23.29
89663,9.872,-1.576,0.481,2.992,-2.924,23.115
89713,9.884,-1.861,0.462,1.58,-2.779,21.931
89763,9.822,-2.163,0.364,-0.328,-2.763,19.855
89814,9.673,-2.328,0.395,-2.458,-2.473,16.534
89864,9.707,-2.503,0.285,-4.756,-2.229,12.519
89913,9.693,-2.601,0.232,-7.321,-1.611,8.183
89963,9.666,-2.642,0.271,-9.435,-0.603,3.389
90013,9.561,-2.654,0.235,-11.71,0.206,-1.313
90063,9.635,-2.603,0.153,-13.763,1.397,-5.458
90114,9.587,-2.548,0.172,-15.038,2.511,-9.481
90164,9.654,-2.433,0.213,-16.313,3.176,-13.229
90214,9.602,-2.342,0.11,-17.191,3.924,-16.351
90264,9.676,-2.223,0.278,-17.756,4.412,-19.137
90314,9.597,-2.062,0.163,-17.908,4.977,-21.42
90364,9.65,-1.923,0.228,-17.282,5.893,-23.527
90415,9.7,-1.679,0.242,-16.206,7.046,-24.672
90464,9.724,-1.468,0.211,-15.298,8.076,-25.427
90514,9.753,-1.312,0.232,-14.137,8.939,-25.061
90564,9.86,-1.087,0.405,-12.901,9.588,-23.733
90614,9.97,-0.963,0.501,-11.901,9.733,-22.023
90664,10.021,-0.845,0.539,-11.244,9.382,-20.267
90715,10.109,-0.759,0.639,-10.672,8.809,-18.611
90764,10.217,-0.582,0.74,-10.366,7.855,-17.069
90814,10.184,-0.422,0.692,-10.427,6.618,-15.069
90864,10.313,-0.323,0.69,-10.687,5.924,-12.183
90914,10.344,-0.177,0.759,-10.817,4.977,-8.695
90964,10.418,-0.077,0.774,-11.221,3.985,-4.42
91015,10.406,-0.06,0.79,-11.802,3.168,-0.015
91064,10.337,-0.129,0.879,-12.802,2.061,4.42
91114,10.279,-0.232,0.896,-13.908,0.679,7.985
91164,10.267,-0.378,0.92,-15.313,-0.885,11.351
91214,10.246,-0.429,0.992,-17.122,-2.634,13.611
91265,10.208,-0.51,0.936,-18.611,-4.809,15.832
91315,10.15,-0.616,0.853,-20.382,-6.763,17.863
91364,10.148,-0.69,0.824,-21.87,-8.29,19.664
91414,10.186,-0.831,0.714,-22.718,-9.802,21.374
91464,10.1,-1.004,0.501,-22.969,-10.336,22.565
91514,10.071,-1.114,0.445,-22.573,-11.107,23.672
91565,10.026,-1.418,0.211,-21.382,-10.916,23.992
91615,9.968,-1.559,0.165,-19.687,-10.595,23.481
91665,10.009,-1.784,0.043,-17.046,-9.649,22.344
91715,9.879,-1.969,-0.055,-13.809,-8.344,20.046
91765,9.935,-2.158,-0.309,-10.496,-6.519,17.015
91815,9.829,-2.287,-0.328,-6.771,-3.832,13.45
91866,9.781,-2.457,-0.467,-2.779,-1.504,9.466
91915,9.671,-2.5,-0.402,0.847,0.832,5.374
91965,9.594,-2.582,-0.278,3.893,3.244,1.351
92015,9.535,-2.488,-0.163,6.649,5.221,-2.351
92065,9.532,-2.534,-0.041,8.641,6.771,-6.023
92115,9.496,-2.539,-0.029,9.664,7.924,-9.733
92166,9.496,-2.467,0.129,10.008,8.641,-13.489
92215,9.58,-2.429,0.187,9.771,9.321,-17.206
92265,9.475,-2.251,0.254,8.794,9.733,-20.573
92315,9.662,-2.024,0.321,7.145,9.473,-23.565
92365,9.616,-1.837,0.433,5.29,9.313,-25.71
92416,9.662,-1.576,0.541,3.137,9.305,-26.641
92466,9.738,-1.324,0.589,1.031,8.565,-26.878
92515,9.822,-1.162,0.671,-1.183,7.87,-25.504
92565,9.875,-0.913,0.774,-3.313,6.527,-23.87
92615,9.98,-0.805,0.747,-5.29,5.336,-21.496
92665,10.002,-0.769,0.704,-6.893,4.389,-19.664
92716,10.119,-0.723,0.766,-8.275,3.42,-18.336
92766,10.191,-0.613,0.639,-8.924,2.748,-16.733
92815,10.303,-0.498,0.683,-9.565,2.305,-15.069
92865,10.346,-0.311,0.754,-9.794,1.359,-12.427
92915,10.346,-0.108,0.699,-9.603,0.489,-8.649
92965,10.368,-0.026,0.783,-9.282,-0.55,-3.985
93016,10.454,0.0,0.814,-8.573,-1.733,0.641
93065,10.325,-0.086,0.728,-7.771,-2.718,5.42
93115,10.229,-0.182,0.692,-6.924,-3.603,9.267
93165,10.33,-0.302,0.546,-5.855,-4.122,12.366
93215,10.212,-0.498,0.613,-4.832,-4.595,14.794
93265,10.162,-0.618,0.556,-3.954,-4.771,16.748
93316,10.157,-0.728,0.568,-2.84,-5.137,18.313
93365,10.155,-0.829,0.541,-1.794,-5.374,19.832
93415,10.167,-0.862,0.472,-1.221,-5.443,21.29
93465,10.184,-1.004,0.433,-0.473,-5.504,22.626
93515,10.078,-1.25,0.366,-0.076,-5.405,23.603
93565,10.105,-1.372,0.419,0.221,-5.252,24.015
93616,9.992,-1.626,0.331,0.0,-5.237,23.42
93665,9.997,-1.863,0.213,-0.496,-4.985,22.115
93715,9.935,-2.11,0.314,-1.107,-4.45,19.649
93765,9.911,-2.247,0.12,-1.847,-3.733,16.588
93815,9.884,-2.388,0.156,-2.985,-2.595,12.55
93865,9.827,-2.536,0.053,-4.023,-1.496,8.206
93916,9.769,-2.491,0.184,-5.115,-0.542,3.771
93965,9.664,-2.486,0.187,-6.176,0.267,-0.26
94015,9.647,-2.402,0.249,-7.489,0.901,-3.893
94065,9.65,-2.479,0.18,-8.336,1.351,-7.504
94115,9.539,-2.429,0.151,-9.145,2.015,-10.351
94166,9.554,-2.376,0.199,-9.282,2.901,-13.771
94216,9.494,-2.29,0.101,-9.206,3.817,-17.038
94265,9.444,-2.182,0.081,-8.84,4.824,-20.191
94315,9.491,-2.0,0.16,-7.527,5.733,-22.679
94365,9.535,-1.847,0.072,-6.55,6.802,-24.71
94415,9.542,-1.617,0.24,-4.695,7.496,-25.84
94466,9.628,-1.31,0.177,-2.763,7.924,-25.878
94516,9.726,-1.073,0.228,-0.802,8.397,-24.817
94566,9.827,-0.841,0.309,1.412,8.489,-22.901
94616,9.87,-0.757,0.374,3.198,8.321,-20.565
94666,9.97,-0.73,0.414,5.038,8.183,-18.099
94716,10.088,-0.678,0.414,6.641,7.969,-16.29
94767,10.119,-0.639,0.486,7.695,7.992,-14.611
94816,10.277,-0.51,0.563,8.45,7.687,-12.855
94866,10.342,-0.407,0.697,8.916,6.931,-10.748
94916,10.337,-0.22,0.783,8.794,5.74,-7.863
94966,10.373,-0.175,0.91,8.275,4.435,-4.221
95016,10.404,-0.184,0.984,7.389,2.87,-0.305
95067,10.414,-0.16,0.879,6.153,1.313,3.656
95116,10.289,-0.261,0.893,4.443,-0.275,7.405
95166,10.346,-0.273,0.891,2.992,-1.718,10.71
95216,10.267,-0.381,0.913,1.183,-3.038,13.626
95266,10.174,-0.467,0.951,-0.702,-4.023,15.893
95316,10.248,-0.695,0.891,-2.687,-5.191,18.153
95367,10.208,-0.769,0.841,-4.473,-6.405,19.58
95416,10.114,-0.869,0.709,-6.443,-7.435,20.534
95466,10.121,-0.996,0.575,-7.908,-8.252,21.405
95516,10.136,-1.181,0.572,-8.992,-9.191,21.885
95566,10.09,-1.296,0.457,-9.763,-9.84,22.298
95617,10.09,-1.444,0.419,-10.244,-10.015,21.832
95667,9.982,-1.688,0.228,-9.977,-9.573,21.061
95716,9.949,-1.882,0.12,-9.481,-8.855,19.84
95766,9.913,-2.072,0.055,-8.321,-7.71,17.443
95816,9.899,-2.189,-0.012,-6.939,-6.015,14.305
95866,9.827,-2.388,-0.089,-4.992,-4.427,10.672
95917,9.707,-2.45,-0.101,-3.023,-2.656,6.718
95967,9.669,-2.476,-0.192,-0.901,-1.321,2.672
96017,9.657,-2.448,-0.101,0.931,0.282,-0.855
96067,9.578,-2.45,-0.156,2.985,2.038,-4.542
96117,9.599,-2.402,-0.12,4.618,3.351,-7.824
96167,9.513,-2.405,-0.089,5.939,4.718,-11.0
96218,9.472,-2.376,-0.012,7.008,6.137,-14.176
96267,9.554,-2.297,0.005,7.664,7.023,-17.252
96317,9.575,-2.268,0.17,7.885,7.74,-20.275
96367,9.554,-2.158,0.302,7.924,8.084,-23.031
96417,9.575,-1.909,0.242,7.466,8.42,-25.351
96467,9.606,-1.823,0.321,6.626,8.427,-27.305
96518,9.729,-1.447,0.371,5.786,8.214,-28.023
96567,9.714,-1.298,0.58,4.87,7.87,-27.702
96617,9.817,-0.929,0.635,3.931,7.183,-26.565
96667,9.911,-0.86,0.668,3.0,6.412,-24.893
96717,9.992,-0.742,0.666,2.0,5.229,-22.763
96768,10.097,-0.553,0.685,1.55,4.427,-20.71
96818,10.145,-0.412,0.836,1.183,3.282,-18.389
96867,10.267,-0.244,0.829,1.0,2.16,-15.328
96917,10.313,-0.108,0.754,0.992,1.107,-11.672
96967,10.421,-0.038,0.69,1.519,0.099,-7.809
97017,10.43,0.017,0.711,2.275,-0.939,-3.595
97068,10.346,0.053,0.711,3.031,-1.977,1.015
97118,10.454,0.065,0.764,4.031,-2.603,5.649
97167,10.392,-0.019,0.709,5.321,-3.313,10.038
97217,10.323,-0.132,0.661,6.687,-4.008,14.336
97267,10.267,-0.199,0.582,7.908,-4.771,18.366
97317,10.263,-0.402,0.613,9.046,-5.183,21.832
97368,10.246,-0.553,0.56,10.412,-5.534,24.588
97417,10.193,-0.805,0.484,11.351,-5.908,26.351
97467,10.15,-1.011,0.41,12.489,-5.779,27.641
97517,10.186,-1.205,0.388,13.015,-5.489,27.908
97567,10.081,-1.389,0.386,13.534,-5.092,27.878
97617,10.021,-1.662,0.302,13.481,-4.122,26.924
97668,9.975,-1.911,0.366,13.214,-3.031,25.573
97717,9.927,-2.127,0.216,11.908,-1.702,23.458
97767,9.896,-2.213,0.299,10.221,-0.496,20.618
97817,9.769,-2.45,0.309,7.611,0.42,17.374
97867,9.712,-2.563,0.359,4.015,0.992,12.985
97917,9.678,-2.771,0.431,0.115,0.84,8.504
97968,9.638,-2.814,0.534,-4.458,0.672,3.649
98017,9.626,-2.833,0.405,-9.0,0.29,-1.237
98067,9.52,-2.814,0.443,-13.473,0.351,-6.481
98117,9.563,-2.802,0.359,-17.382,1.084,-11.252
98167,9.489,-2.716,0.208,-20.878,1.901,-15.931
98217,9.489,-2.57,0.18,-23.519,3.267,-19.748
98268,9.494,-2.333,0.208,-25.489,4.45,-23.153
98317,9.436,-2.199,0.208,-26.679,5.611,-25.618
98367,9.475,-2.019,0.285,-27.176,6.489,-27.573
98417,9.554,-1.926,0.292,-27.176,7.084,-29.298
98467,9.573,-1.581,0.271,-26.282,7.817,-30.534
98518,9.717,-1.43,0.271,-25.176,8.58,-31.29
98568,9.683,-1.147,0.369,-23.519,9.176,-30.718
98617,9.978,-0.845,0.34,-21.702,9.756,-29.55
98667,9.987,-0.589,0.388,-19.313,10.382,-27.26
98717,10.069,-0.362,0.52,-17.107,10.611,-24.359
98767,10.203,-0.113,0.534,-15.221,10.885,-20.55
98818,10.258,0.036,0.635,-13.824,10.336,-16.206
98868,10.282,0.117,0.79,-12.985,9.29,-10.786
98918,10.382,0.175,0.857,-12.679,7.947,-5.542
98968,10.449,0.206,1.068,-13.145,6.191,-0.183
99018,10.447,0.139,1.035,-14.336,4.099,4.679
99068,10.423,0.069,1.059,-15.878,2.176,8.878
99119,10.435,-0.129,1.071,-18.092,-0.252,12.908
99168,10.358,-0.211,1.013,-20.366,-2.603,16.351
99218,10.284,-0.292,1.011,-23.13,-4.588,19.901
99268,10.246,-0.412,0.886,-25.947,-6.664,23.0
99318,10.184,-0.58,0.841,-28.412,-8.916,25.565
99368,10.174,-0.865,0.766,-30.718,-10.618,27.29
99419,10.138,-1.09,0.716,-32.351,-12.313,28.031
99468,10.136,-1.296,0.546,-33.672,-13.718,27.817
99518,10.088,-1.607,0.364,-33.725,-14.427,26.206
99568,10.014,-1.787,0.156,-32.618,-14.519,24.244
99618,10.045,-1.959,-0.026,-30.511,-13.618,21.588
99668,9.93,-2.065,-0.247,-26.817,-11.954,18.573
99719,9.851,-2.134,-0.393,-22.366,-9.954,15.618
99768,9.779,-2.251,-0.438,-17.382,-7.229,12.733
99818,9.741,-2.369,-0.522,-11.458,-4.351,9.893
99868,9.683,-2.414,-0.445,-5.092,-1.55,6.412
99918,9.671,-2.486,-0.422,0.885,0.977,2.595
99969,9.604,-2.553,-0.4,6.611,3.153,-1.435
100019,9.544,-2.608,-0.366,12.069,5.481,-5.84
100068,9.556,-2.512,-0.345,16.55,7.595,-9.924
100118,9.47,-2.433,-0.256,20.305,9.481,-13.939
100168,9.468,-2.323,-0.139,23.16,11.237,-17.321
100218,9.503,-2.206,-0.022,24.809,12.42,-20.565
100269,9.523,-2.036,0.189,25.427,12.931,-22.672
100319,9.53,-1.832,0.345,24.733,12.87,-24.519
100369,9.539,-1.748,0.513,23.252,12.153,-26.191
100419,9.7,-1.595,0.651,20.595,10.763,-27.183
100469,9.738,-1.427,0.647,17.786,9.511,-28.053
100519,9.776,-1.195,0.802,14.641,7.832,-28.031
100570,9.915,-0.91,0.881,11.435,6.008,-27.191
100619,9.925,-0.687,0.857,8.779,4.496,-25.832
100669,9.982,-0.51,0.841,6.244,2.863,-23.45
100719,10.073,-0.333,0.795,4.26,1.565,-20.573
100769,10.203,-0.189,0.953,2.985,0.183,-16.794
100819,10.184,-0.026,0.829,2.061,-0.931,-13.008
100870,10.358,0.057,0.829,1.672,-2.29,-8.176
100919,10.325,0.127,0.874,2.076,-3.641,-3.313
100969,10.421,0.105,0.8,2.725,-5.13,1.855
101019,10.375,-0.05,0.714,4.046,-6.015,6.298
101069,10.375,-0.125,0.651,5.718,-6.672,10.107
101120,10.323,-0.211,0.553,7.824,-7.137,13.42
101170,10.296,-0.354,0.426,10.153,-6.908,16.206
101219,10.217,-0.498,0.398,12.969,-6.611,18.725
101269,10.205,-0.654,0.352,15.656,-5.565,21.13
101319,10.21,-0.774,0.323,18.122,-4.733,23.13
101369,10.097,-0.977,0.321,20.382,-3.672,24.664
101420,10.064,-1.195,0.374,21.58,-2.916,25.786
101470,10.097,-1.399,0.374,22.008,-2.084,25.817
101519,10.04,-1.643,0.474,21.809,-1.687,24.695
101569,10.05,-1.83,0.462,20.466,-1.427,22.863
101619,10.047,-2.103,0.39,18.458,-1.267,19.878
101669,9.973,-2.23,0.345,15.832,-0.702,16.908
101720,9.887,-2.239,0.433,12.366,-0.26,13.504
101769,9.851,-2.275,0.436,8.275,0.176,10.351
101819,9.779,-2.385,0.515,3.71,0.351,7.099
101869,9.803,-2.429,0.536,-1.366,0.26,3.977
101919,9.681,-2.476,0.489,-6.313,-0.023,0.389
101969,9.606,-2.496,0.58,-11.45,-0.45,-3.328
102020,9.559,-2.498,0.513,-15.802,-0.977,-6.802
102069,9.671,-2.445,0.546,-19.702,-1.084,-10.916
102119,9.57,-2.366,0.39,-22.573,-0.977,-14.221
102169,9.602,-2.232,0.266,-24.74,-0.397,-17.557
102219,9.594,-2.038,0.249,-25.809,0.489,-19.847
102269,9.592,-1.897,0.153,-25.74,1.702,-21.863
102320,9.611,-1.741,0.144,-24.786,2.702,-22.817
102369,9.602,-1.574,0.103,-22.817,4.092,-23.656
102419,9.602,-1.43,0.18,-20.351,5.16,-23.962
102469,9.745,-1.267,0.089,-17.382,6.267,-24.107
102519,9.767,-1.071,0.259,-13.939,7.168,-23.733
102569,9.815,-0.932,0.256,-10.435,7.885,-22.702
102620,9.894,-0.663,0.232,-6.84,8.756,-20.802
102669,10.045,-0.565,0.316,-3.573,9.031,-18.176
102719,10.076,-0.46,0.371,-0.985,9.229,-15.427
102769,10.169,-0.369,0.548,1.298,9.076,-12.382
102819,10.22,-0.304,0.659,3.115,8.74,-9.427
102870,10.234,-0.244,0.733,4.099,8.084,-6.298
102920,10.246,-0.208,0.79,4.29,6.939,-2.817
102969,10.251,-0.237,0.841,4.321,5.725,0.725
103019,10.282,-0.256,0.905,3.237,4.198,4.153
103069,10.308,-0.357,0.948,1.679,2.687,7.359
103119,10.241,-0.414,0.927,-0.084,1.115,10.679
103170,10.255,-0.489,0.972,-2.603,-0.496,13.45
103220,10.251,-0.539,0.958,-5.183,-2.008,15.664
103270,10.21,-0.709,0.829,-8.0,-3.351,17.618
103320,10.155,-0.764,0.891,-10.687,-4.794,19.13
103370,10.15,-1.018,0.831,-13.351,-6.29,20.321
103420,10.172,-1.152,0.79,-15.947,-7.534,20.679
103471,10.03,-1.344,0.673,-17.885,-8.901,20.664
103520,10.15,-1.437,0.465,-19.145,-9.718,20.008
103570,10.114,-1.602,0.412,-19.908,-10.168,18.687
103620,10.117,-1.7,0.314,-19.626,-10.221,17.076
103670,10.04,-1.756,0.101,-18.595,-9.305,15.321
103720,10.028,-1.808,0.019,-16.496,-8.183,13.779
103771,9.939,-1.894,-0.144,-13.893,-6.573,12.534
103820,9.839,-1.983,-0.17,-10.695,-4.969,11.198
103870,9.793,-2.127,-0.175,-7.344,-3.191,9.42
103920,9.719,-2.175,-0.223,-3.679,-1.214,7.267
103970,9.707,-2.35,-0.177,-0.244,0.603,3.939
104020,9.638,-2.433,-0.184,2.977,2.458,0.366
104071,9.554,-2.467,-0.165,5.756,3.962,-3.977
104120,9.611,-2.436,-0.034,8.183,5.74,-7.992
104170,9.575,-2.347,-0.129,9.603,7.382,-11.901
104220,9.57,-2.256,0.041,10.618,8.466,-15.092
104270,9.59,-2.115,0.156,11.153,9.244,-17.672
104321,9.539,-2.098,0.292,10.58,9.435,-19.58
104371,9.635,-1.89,0.388,9.397,9.756,-21.137
104420,9.559,-1.777,0.462,7.733,9.374,-22.542
104470,9.63,-1.741,0.572,5.55,8.908,-24.16
104520,9.733,-1.583,0.654,3.176,8.122,-25.496
104570,9.762,-1.329,0.671,0.977,7.229,-26.046
104621,9.882,-1.083,0.719,-1.458,6.122,-25.756
104671,9.956,-0.884,0.759,-3.58,5.176,-24.382
104721,10.028,-0.642,0.752,-5.45,4.069,-22.351
104771,10.095,-0.575,0.865,-6.634,3.244,-19.489
104821,10.191,-0.381,0.817,-8.031,2.374,-16.412
104871,10.229,-0.333,0.805,-8.649,1.496,-12.931
104922,10.277,-0.158,0.908,-9.107,0.29,-9.656
104971,10.351,-0.06,0.833,-9.13,-0.901,-6.061
105021,10.402,-0.036,0.865,-9.26,-2.191,-2.244
105071,10.349,-0.103,0.752,-8.542,-3.588,1.641
105121,10.241,-0.12,0.798,-8.099,-4.458,5.481
105171,10.368,-0.122,0.62,-6.847,-5.344,9.336
105222,10.318,-0.218,0.68,-5.214,-5.756,12.977
105271,10.282,-0.285,0.486,-3.687,-6.504,16.489
105321,10.243,-0.402,0.477,-1.702,-6.733,19.496
105371,10.193,-0.474,0.541,0.565,-6.908,22.122
105421,10.26,-0.73,0.45,2.718,-6.893,24.359
105472,10.047,-0.987,0.393,4.771,-6.427,25.817
105522,10.097,-1.174,0.204,6.992,-5.878,26.55
105571,10.069,-1.384,0.216,8.55,-4.779,26.099
105621,10.105,-1.557,0.225,10.053,-3.901,25.244
105671,10.059,-1.753,0.23,10.641,-2.489,23.962
105721,9.966,-1.916,0.254,10.969,-1.305,22.221
105772,9.951,-2.057,0.216,10.344,-0.206,20.45
105822,9.824,-2.244,0.34,8.626,0.588,18.366
105871,9.681,-2.426,0.311,6.214,1.046,15.634
105921,9.724,-2.654,0.369,2.947,1.206,11.656
105971,9.594,-2.869,0.429,-0.763,1.099,7.031
106021,9.59,-2.941,0.359,-4.931,1.198,1.031
106072,9.532,-3.056,0.331,-9.313,1.618,-5.244
106121,9.515,-2.951,0.232,-13.412,2.061,-11.282
106171,9.405,-2.824,0.328,-17.069,3.122,-16.947
106221,9.444,-2.625,0.311,-20.046,4.076,-21.336
106271,9.436,-2.381,0.323,-22.26,5.328,-24.733
106321,9.456,-2.103,0.311,-24.153,6.038,-27.13
106372,9.444,-1.906,0.311,-24.939,6.618,-28.45
106421,9.547,-1.772,0.307,-25.282,7.015,-29.382
106471,9.602,-1.602,0.378,-25.0,7.626,-30.16
106521,9.721,-1.387,0.388,-23.809,8.061,-30.954
106571,9.743,-1.059,0.347,-22.229,8.664,-30.687
106621,9.882,-0.8,0.316,-20.244,9.13,-29.069
106672,10.023,-0.575,0.417,-18.076,9.313,-26.74
106721,10.138,-0.29,0.532,-15.847,9.656,-23.275
106771,10.215,-0.062,0.565,-13.718,10.023,-18.931
106821,10.308,0.043,0.62,-11.969,9.733,-14.45
106871,10.342,0.089,0.73,-10.565,9.015,-9.634
106921,10.433,0.158,0.821,-9.718,7.847,-4.733
106972,10.428,0.117,0.905,-9.557,6.427,0.168
107021,10.38,0.11,0.86,-10.321,4.489,4.626
107071,10.409,0.0,0.97,-11.397,2.496,9.252
107121,10.342,-0.077,1.063,-13.511,0.641,13.191
107171,10.323,-0.201,1.015,-15.786,-1.275,17.084
107222,10.232,-0.402,1.004,-18.397,-2.954,20.069
107272,10.16,-0.58,1.011,-21.321,-4.802,22.374
107321,10.203,-0.726,0.889,-24.641,-6.634,24.107
107371,10.22,-0.927,0.824,-27.702,-8.756,25.229
107421,10.172,-1.085,0.769,-30.641,-10.786,25.733
107471,10.064,-1.329,0.572,-32.74,-12.481,25.473
107522,10.073,-1.48,0.582,-34.221,-13.542,24.427
107572,9.997,-1.617,0.232,-34.557,-13.809,22.542
107622,9.918,-1.839,0.115,-34.031,-13.412,20.672
107672,9.906,-1.894,-0.065,-32.168,-12.313,18.351
107722,9.896,-2.033,-0.137,-29.115,-11.008,15.908
107772,9.848,-2.117,-0.168,-25.0,-9.664,13.389
107823,9.803,-2.29,-0.328,-20.053,-8.107,10.817
107872,9.745,-2.342,-0.359,-14.427,-6.305,7.672
107922,9.724,-2.496,-0.527,-7.763,-4.214,4.061
107972,9.606,-2.544,-0.611,-0.779,-1.328,-0.359
108022,9.638,-2.589,-0.663,6.679,2.145,-5.191
108072,9.659,-2.553,-0.659,13.992,5.992,-10.061
108123,9.532,-2.524,-0.568,20.466,9.511,-14.702
108172,9.57,-2.247,-0.481,26.069,12.466,-18.786
108222,9.573,-2.199,-0.283,30.725,14.481,-22.0
108272,9.544,-1.959,0.014,33.511,15.519,-24.534
108322,9.582,-1.748,0.17,35.092,15.58,-26.115
108372,9.594,-1.633,0.357,35.084,14.695,-27.305
108423,9.652,-1.518,0.479,33.977,13.015,-28.237
108472,9.654,-1.353,0.656,31.794,11.412,-28.733
108522,9.721,-1.159,0.771,29.252,9.244,-29.069
108572,9.832,-0.81,0.831,26.542,7.244,-28.45
108622,9.841,-0.577,0.879,23.74,5.344,-26.595
108673,9.961,-0.309,0.958,21.237,3.321,-23.672
108723,10.081,-0.11,0.764,19.305,1.733,-19.809
108772,10.145,0.01,0.927,17.824,0.069,-15.366
108822,10.342,0.069,0.915,16.763,-1.069,-10.641
108872,10.311,0.067,0.929,16.412,-2.458,-5.725
108922,10.306,0.148,0.855,16.366,-3.969,-0.893
108973,10.339,0.091,0.924,16.756,-5.305,3.84
109023,10.366,-0.038,0.766,17.435,-6.397,8.71
109073,10.32,-0.141,0.661,18.603,-7.298,12.985
109123,10.37,-0.275,0.618,20.0,-7.756,16.588
109173,10.229,-0.541,0.477,21.687,-7.71,19.267
109223,10.308,-0.73,0.453,23.305,-7.305,21.252
109274,10.208,-0.922,0.366,25.267,-6.832,22.573
109323,10.176,-1.13,0.271,26.733,-6.0,23.122
109373,10.107,-1.241,0.342,28.092,-5.168,23.053
109423,10.109,-1.427,0.4,29.137,-4.374,22.527
109473,10.129,-1.578,0.338,29.687,-2.992,21.87
109523,10.114,-1.705,0.251,29.588,-1.908,20.58
109574,10.002,-1.832,0.352,28.573,-0.603,18.687
109623,10.047,-1.973,0.417,26.985,0.405,16.496
109673,9.987,-2.074,0.417,24.443,1.084,14.321
109723,9.925,-2.093,0.455,21.107,1.435,11.924
109773,9.915,-2.148,0.556,16.916,1.542,9.55
109824,9.891,-2.206,0.544,11.977,0.977,7.519
109874,9.851,-2.285,0.704,6.305,0.756,5.084
109923,9.753,-2.407,0.704,0.366,0.153,2.084
109973,9.683,-2.467,0.651,-5.863,-0.679,-1.58
110023,9.618,-2.589,0.647,-11.969,-1.198,-6.145
110073,9.64,-2.591,0.601,-17.702,-1.481,-10.947
110124,9.645,-2.534,0.493,-22.649,-1.389,-15.626
110174,9.599,-2.235,0.498,-26.725,-1.099,-19.649
110223,9.611,-2.043,0.479,-29.29,-0.443,-22.237
110273,9.618,-1.921,0.419,-31.412,0.107,-23.924
110323,9.575,-1.643,0.393,-32.092,0.687,-24.687
110373,9.659,-1.483,0.378,-31.626,1.534,-24.748
110424,9.673,-1.415,0.309,-30.649,1.87,-24.534
110473,9.76,-1.166,0.254,-28.527,2.885,-24.221
110523,9.748,-1.075,0.254,-25.527,3.603,-23.962
110573,9.877,-0.86,0.254,-22.053,4.733,-22.847
110623,9.889,-0.661,0.208,-18.092,5.603,-21.267
110673,10.038,-0.477,0.218,-14.214,6.618,-18.679
110724,10.129,-0.311,0.354,-10.275,7.191,-15.229
110773,10.129,-0.244,0.443,-6.809,7.489,-11.718
110823,10.287,-0.206,0.462,-3.542,7.58,-7.748
110873,10.255,-0.11,0.613,-0.962,7.046,-3.763
110923,10.26,-0.127,0.58,0.786,6.29,-0.053
110973,10.358,-0.194,0.656,2.069,5.481,3.756
111024,10.277,-0.23,0.742,2.618,4.107,7.382
111073,10.255,-0.328,0.733,2.855,2.916,10.824
111123,10.277,-0.472,0.735,2.076,1.947,13.802
111173,10.212,-0.572,0.776,0.916,1.053,16.359
111223,10.241,-0.721,0.752,-0.473,0.084,18.107
111273,10.186,-0.939,0.8,-2.893,-0.611,19.298
111324,10.227,-1.159,0.745,-5.13,-1.649,19.924
111373,10.145,-1.214,0.807,-7.901,-2.74,19.733
111423,10.164,-1.38,0.759,-10.664,-3.939,19.198
111473,10.22,-1.442,0.651,-13.275,-5.298,18.206
111523,10.133,-1.53,0.558,-15.42,-6.305,16.985
111574,10.081,-1.509,0.457,-17.038,-6.962,16.084
111624,10.052,-1.619,0.359,-17.84,-7.137,14.885
111673,9.963,-1.674,0.323,-17.794,-6.771,14.237
111723,9.954,-1.655,0.208,-17.275,-6.275,13.153
111773,9.915,-1.815,0.125,-16.038,-5.458,12.656
111823,9.913,-1.902,0.038,-14.313,-4.267,11.794
111874,9.844,-2.043,0.012,-12.122,-3.122,10.244
111924,9.791,-2.196,-0.137,-9.756,-1.771,7.908
111974,9.738,-2.385,-0.225,-7.481,-0.076,4.573
112024,9.695,-2.503,-0.156,-4.908,1.649,0.588
112074,9.638,-2.546,-0.146,-2.924,3.641,-3.817
112124,9.602,-2.505,-0.125,-0.969,5.588,-8.511
112175,9.645,-2.405,-0.057,0.695,7.412,-12.649
112224,9.573,-2.28,-0.026,1.756,8.687,-15.992
112274,9.585,-2.112,0.172,2.084,9.771,-18.756
112324,9.52,-2.06,0.237,1.992,10.267,-20.412
112374,9.585,-1.818,0.299,1.244,10.573,-21.924
112424,9.52,-1.779,0.45,-0.313,10.191,-23.115
112475,9.618,-1.65,0.544,-1.794,9.771,-24.275
112524,9.676,-1.528,0.627,-3.763,9.298,-25.45
112574,9.76,-1.341,0.587,-6.046,8.786,-26.076
112624,9.848,-1.059,0.764,-8.13,8.298,-26.092
112674,9.937,-0.793,0.771,-10.519,7.252,-24.687
112724,10.021,-0.57,0.821,-12.634,6.435,-22.588
112775,10.119,-0.359,0.881,-14.489,5.038,-19.389
112824,10.179,-0.206,0.956,-16.504,3.672,-15.679
112874,10.282,-0.134,0.944,-17.985,1.802,-11.634
112924,10.315,-0.029,0.984,-19.305,0.137,-7.427
112974,10.308,-0.098,0.824,-20.328,-1.748,-3.267
113025,10.394,-0.096,0.886,-21.023,-3.298,0.763
113075,10.351,-0.053,0.745,-21.038,-4.443,4.763
113124,10.38,-0.117,0.635,-20.84,-5.427,8.305
113174,10.303,-0.249,0.582,-20.176,-5.908,11.74
113224,10.299,-0.352,0.57,-19.031,-6.115,14.71
113274,10.325,-0.45,0.484,-17.748,-6.74,17.198
113325,10.21,-0.647,0.527,-16.374,-7.13,19.206
113375,10.184,-0.75,0.431,-14.42,-7.725,20.618
113425,10.133,-0.917,0.45,-12.847,-8.122,21.74
113475,10.102,-1.042,0.304,-10.573,-8.221,22.725
113525,10.028,-1.123,0.232,-8.031,-7.939,23.473
113575,10.061,-1.255,0.213,-5.779,-7.252,23.802
113626,10.023,-1.425,0.103,-3.145,-6.0,24.229
113675,9.92,-1.602,0.139,-0.947,-4.74,23.824
113725,9.913,-1.784,0.031,0.977,-3.534,22.947
113775,9.846,-2.007,0.11,2.458,-2.511,21.641
113825,9.769,-2.273,0.06,3.374,-1.573,18.924
113875,9.729,-2.498,0.127,3.618,-0.58,15.435
113926,9.769,-2.599,0.115,3.519,0.321,11.191
113975,9.621,-2.807,0.055,2.695,1.344,6.191
114025,9.657,-2.917,0.091,1.336,2.252,0.779
114075,9.63,-2.924,0.007,0.015,3.534,-5.168
114125,9.594,-2.9,0.036,-1.305,4.992,-10.573
114176,9.556,-2.778,0.077,-3.099,6.183,-15.863
114226,9.585,-2.663,0.137,-4.939,7.45,-20.351
114275,9.463,-2.52,0.271,-6.588,8.244,-24.336
114325,9.544,-2.302,0.208,-8.389,8.977,-27.412
114375,9.491,-2.017,0.342,-9.992,9.069,-29.885
114425,9.542,-1.799,0.41,-11.137,9.359,-31.573
114476,9.623,-1.629,0.422,-12.29,9.389,-32.939
114526,9.647,-1.363,0.493,-12.977,9.115,-33.229
114575,9.705,-1.109,0.596,-13.374,8.977,-33.038
114625,9.815,-0.766,0.692,-13.313,8.504,-31.611
114675,9.913,-0.393,0.644,-12.847,8.031,-28.969
114725,9.99,-0.168,0.671,-12.229,7.26,-25.076
114776,10.186,0.084,0.754,-11.527,6.74,-20.267
114825,10.275,0.187,0.738,-10.656,5.832,-15.427
114875,10.263,0.206,0.707,-9.878,5.206,-9.878
114925,10.315,0.295,0.898,-9.076,4.092,-4.252
115022,10.313,0.199,0.855,-8.58,0.985,6.336
115072,10.318,0.144,0.86,-8.573,-0.733,11.595
115122,10.346,0.038,0.886,-8.916,-2.489,16.267
115171,10.351,-0.16,0.848,-9.817,-3.939,20.092
115221,10.318,-0.383,0.781,-10.786,-5.023,23.0
115271,10.32,-0.661,0.668,-11.916,-5.931,24.916
115321,10.133,-0.879,0.726,-13.473,-6.893,26.023
115372,10.181,-1.073,0.639,-15.053,-7.809,26.221
115422,10.181,-1.212,0.606,-16.725,-8.305,26.183
115471,10.028,-1.372,0.508,-18.076,-8.779,25.527
115521,9.999,-1.576,0.422,-19.74,-9.435,24.947
115571,9.939,-1.71,0.412,-20.794,-9.504,23.947
115621,9.872,-1.823,0.366,-21.435,-10.168,22.702
115672,9.848,-1.973,0.316,-21.603,-9.947,21.023
115721,9.93,-2.156,0.158,-21.366,-9.916,18.58
115771,9.896,-2.33,-0.043,-20.061,-9.534,15.275
115821,9.779,-2.441,-0.225,-17.916,-8.229,11.359
115871,9.736,-2.599,-0.29,-14.794,-6.588,6.656
115921,9.726,-2.687,-0.4,-10.939,-4.099,2.031
115972,9.64,-2.644,-0.498,-6.397,-1.282,-2.855
116021,9.65,-2.692,-0.594,-1.397,1.641,-7.725
116071,9.582,-2.618,-0.486,3.588,4.458,-11.992
116121,9.53,-2.498,-0.412,8.901,7.115,-16.389
116171,9.501,-2.405,-0.378,13.519,9.336,-20.191
116221,9.503,-2.223,-0.206,17.695,11.229,-23.328
116272,9.554,-1.957,-0.084,21.313,12.389,-26.023
116321,9.539,-1.885,0.022,24.031,12.985,-28.061
116371,9.606,-1.65,0.093,26.015,12.992,-29.573
116421,9.693,-1.437,0.244,27.115,12.87,-30.603
116471,9.738,-1.219,0.369,27.489,12.489,-30.985
116521,9.738,-0.946,0.536,27.656,11.603,-30.611
116572,9.875,-0.728,0.647,26.786,10.45,-29.176
116621,9.903,-0.46,0.759,26.221,8.573,-26.977
116671,9.927,-0.218,0.81,25.389,6.466,-23.672
116721,10.028,0.002,0.855,24.328,4.366,-19.191
116771,10.133,0.125,0.877,23.786,2.267,-14.214
116822,10.196,0.17,0.879,23.412,0.771,-9.084
116872,10.26,0.146,0.802,23.053,-0.634,-3.947
116921,10.411,0.146,0.814,22.901,-1.595,0.924
116971,10.366,0.091,0.719,23.282,-2.725,5.229
117021,10.342,-0.017,0.774,23.626,-3.618,9.74
117071,10.409,-0.218,0.845,23.725,-4.763,13.794
117122,10.335,-0.283,0.752,24.328,-5.305,17.763
117172,10.27,-0.501,0.659,24.504,-6.038,20.824
117222,10.184,-0.723,0.63,24.74,-6.282,22.893
117272,10.203,-0.977,0.592,24.748,-6.244,23.664
117322,10.148,-1.214,0.534,24.573,-5.802,23.939
117372,10.088,-1.396,0.457,24.542,-5.611,23.153
117423,10.157,-1.437,0.505,24.145,-4.893,21.954
117472,10.059,-1.669,0.417,23.13,-4.473,20.649
117522,9.99,-1.66,0.525,22.16,-3.588,19.542
117572,9.987,-1.779,0.374,21.008,-2.626,18.275
117622,9.994,-1.796,0.412,19.382,-1.901,17.061
117672,9.891,-1.902,0.369,17.069,-1.374,15.947
117723,9.896,-2.081,0.474,14.366,-1.015,14.244
117772,9.913,-2.211,0.536,11.198,-0.756,12.031
117822,9.841,-2.292,0.45,7.328,-0.733,9.107
117872,9.827,-2.436,0.498,3.275,-0.962,5.763
117922,9.875,-2.527,0.39,-1.237,-1.031,1.496
117972,9.772,-2.594,0.414,-5.351,-0.962,-2.977
118023,9.721,-2.594,0.41,-9.733,-0.656,-7.206
118072,9.671,-2.503,0.378,-13.58,-0.26,-11.137
118122,9.628,-2.467,0.347,-16.916,0.13,-14.985
118174,9.609,-2.326,0.292,-19.534,0.626,-18.214
118224,9.642,-2.196,0.259,-21.473,1.29,-21.023
118275,9.647,-1.914,0.244,-22.733,1.847,-23.0
118325,9.673,-1.779,0.28,-23.282,2.641,-24.466
118374,9.666,-1.566,0.28,-23.382,3.092,-25.366
118424,9.724,-1.392,0.307,-22.534,3.878,-25.817
118474,9.779,-1.277,0.316,-21.176,4.519,-25.962
118524,9.81,-1.063,0.378,-19.496,5.176,-25.611
118575,9.903,-0.824,0.352,-17.191,5.786,-24.405
118625,9.913,-0.656,0.328,-14.954,6.183,-22.527
118675,10.028,-0.45,0.484,-12.504,6.328,-19.809
118725,10.042,-0.283,0.496,-10.382,6.176,-16.214
118775,10.124,-0.187,0.596,-7.931,5.634,-11.771
118825,10.145,-0.084,0.625,-6.244,5.153,-7.718
118876,10.208,-0.132,0.623,-4.611,4.542,-3.534
118925,10.318,-0.225,0.63,-3.504,3.649,0.115
118975,10.279,-0.225,0.697,-2.672,2.855,3.695
119025,10.308,-0.345,0.759,-2.229,1.824,6.809
119075,10.287,-0.381,0.714,-2.221,0.87,9.664
119126,10.294,-0.513,0.783,-2.565,-0.031,12.412
119176,10.289,-0.661,0.81,-3.099,-1.198,14.595
119225,10.306,-0.793,0.685,-3.87,-2.122,16.275
119275,10.174,-0.891,0.644,-4.794,-3.076,17.084
119325,10.284,-1.049,0.611,-5.756,-3.863,17.489
119375,10.2,-1.138,0.556,-6.435,-4.687,17.412
119426,10.208,-1.238,0.467,-6.817,-4.924,17.366
119476,10.152,-1.19,0.489,-6.847,-5.031,17.198
119525,10.097,-1.274,0.374,-6.504,-4.824,17.107
119575,10.054,-1.277,0.261,-6.13,-4.885,17.405
119625,10.004,-1.432,0.254,-5.092,-4.328,17.954
119675,9.968,-1.475,0.299,-4.351,-3.878,18.298
119726,10.028,-1.626,0.266,-3.214,-3.115,18.069
119776,9.973,-1.882,0.199,-2.611,-2.389,16.908
119825,9.966,-2.098,0.196,-1.954,-1.962,15.221
119875,9.872,-2.191,0.148,-1.519,-0.702,12.473
119925,9.805,-2.373,0.079,-1.733,0.542,9.031
119975,9.776,-2.524,0.079,-2.229,1.641,5.206
120026,9.707,-2.599,0.108,-2.802,3.015,0.84
120075,9.685,-2.563,0.177,-3.878,4.038,-3.282
120125,9.616,-2.596,0.192,-5.405,5.252,-7.443
120175,9.554,-2.548,0.196,-7.237,6.145,-11.588
120225,9.587,-2.493,0.374,-9.29,6.664,-15.374
120275,9.463,-2.347,0.34,-11.595,6.878,-18.84
120326,9.501,-2.146,0.431,-13.87,6.885,-21.901
120375,9.618,-2.043,0.455,-16.122,6.847,-24.115
120425,9.626,-1.861,0.436,-17.985,7.122,-25.718
120475,9.602,-1.665,0.441,-19.511,7.267,-26.885
120525,9.729,-1.471,0.453,-20.74,7.802,-27.435
120576,9.788,-1.214,0.56,-21.527,7.954,-27.382
120626,9.865,-1.027,0.584,-22.183,8.298,-26.511
120675,9.908,-0.764,0.683,-22.664,8.26,-24.809
120725,9.994,-0.532,0.766,-23.137,7.824,-22.382
120775,10.102,-0.407,0.671,-23.061,6.969,-19.099
120825,10.179,-0.225,0.86,-23.595,6.076,-15.725
120876,10.22,-0.132,0.812,-23.962,4.557,-11.687
120926,10.306,-0.098,0.85,-24.412,3.321,-7.687
120975,10.366,-0.072,0.917,-24.771,2.099,-3.664
121025,10.461,-0.151,0.833,-24.908,0.924,0.435
121075,10.44,-0.081,0.86,-25.443,-0.29,4.145
121125,10.409,-0.151,0.865,-25.489,-1.389,7.947
121176,10.363,-0.251,0.757,-25.954,-2.58,11.313
121226,10.33,-0.369,0.774,-26.344,-3.824,13.931
121275,10.277,-0.534,0.723,-26.763,-5.015,16.336
121325,10.248,-0.618,0.589,-26.977,-6.16,18.061
121375,10.174,-0.764,0.589,-26.855,-7.221,19.435
121425,10.138,-0.853,0.465,-26.802,-7.748,20.71
121476,10.191,-0.968,0.498,-26.359,-8.26,21.58
121526,10.021,-1.054,0.422,-25.809,-8.763,22.733
121576,10.076,-1.121,0.41,-24.809,-9.053,23.45
121626,10.021,-1.286,0.299,-23.466,-9.534,24.031
121676,9.987,-1.49,0.165,-22.015,-9.42,24.16
121726,9.894,-1.772,0.129,-20.046,-9.527,23.267
121777,9.894,-1.988,-0.026,-17.45,-9.023,21.595
121826,9.834,-2.134,-0.184,-14.344,-7.977,18.969
121876,9.808,-2.371,-0.242,-10.832,-6.435,15.344
121926,9.719,-2.527,-0.366,-7.046,-3.924,11.374
121976,9.652,-2.635,-0.405,-2.863,-1.145,6.832
122027,9.604,-2.706,-0.402,1.412,1.603,2.053
122077,9.542,-2.79,-0.323,5.298,4.153,-2.595
122126,9.539,-2.761,-0.345,8.878,6.473,-7.298
122176,9.47,-2.73,-0.223,11.84,8.504,-12.29
122226,9.468,-2.649,-0.16,14.115,10.351,-17.58
122276,9.496,-2.563,0.005,15.466,11.71,-22.176
122327,9.429,-2.357,0.072,16.069,12.42,-26.473
122377,9.559,-2.076,0.163,16.092,12.534,-29.748
122426,9.53,-1.854,0.225,15.595,12.344,-32.0
122476,9.678,-1.552,0.39,14.489,12.038,-33.145
122526,9.664,-1.296,0.503,13.321,11.55,-33.153
122576,9.638,-1.073,0.544,11.527,10.863,-32.344
122627,9.846,-0.723,0.707,10.26,9.679,-30.565
122677,9.877,-0.563,0.79,8.351,8.26,-28.252
122726,10.023,-0.309,0.927,6.656,6.328,-25.183
122776,10.095,-0.113,0.881,5.313,4.115,-21.099
122826,10.186,0.007,0.956,4.183,1.794,-16.313
122876,10.294,0.125,1.042,3.458,0.015,-11.198
122927,10.346,0.177,0.814,3.252,-1.55,-6.191
122977,10.39,0.158,0.783,3.321,-2.603,-1.214
123027,10.433,0.115,0.786,4.198,-3.435,3.626
123077,10.464,0.057,0.793,5.061,-3.863,8.176
123127,10.368,-0.113,0.714,5.916,-4.458,12.511
123177,10.394,-0.192,0.675,7.115,-4.847,16.397
123228,10.375,-0.323,0.601,7.901,-5.641,19.29
123277,10.287,-0.572,0.568,8.74,-6.168,21.786
123327,10.205,-0.752,0.563,9.435,-6.313,23.473
123377,10.107,-0.932,0.527,10.053,-6.298,24.466
123427,10.121,-1.104,0.484,10.275,-5.924,24.771
123478,10.057,-1.286,0.491,10.237,-5.42,24.992
123528,9.982,-1.368,0.438,9.901,-4.756,24.969
123577,10.002,-1.466,0.39,9.168,-4.359,24.916
123627,9.93,-1.66,0.422,7.718,-3.863,24.45
123677,9.865,-1.847,0.441,5.786,-4.092,23.534
123727,9.889,-2.005,0.472,3.504,-4.115,22.153
123778,9.846,-2.29,0.441,0.504,-4.397,19.351
123828,9.812,-2.419,0.405,-2.534,-4.382,15.931
123877,9.805,-2.635,0.285,-5.206,-4.359,11.847
123927,9.731,-2.771,0.254,-8.092,-3.702,6.939
123977,9.635,-2.802,0.232,-10.473,-2.977,2.092
124027,9.681,-2.826,0.034,-12.336,-1.855,-2.924
124078,9.599,-2.821,-0.002,-13.466,-0.855,-7.573
124128,9.58,-2.738,0.014,-13.969,0.389,-12.481
124177,9.542,-2.687,-0.002,-13.901,1.954,-17.229
124227,9.566,-2.625,-0.113,-12.725,3.618,-21.977
124277,9.539,-2.419,-0.18,-11.084,5.282,-26.176
124327,9.52,-2.213,-0.101,-8.779,7.099,-29.878
124378,9.59,-1.873,-0.036,-6.221,8.74,-32.038
124427,9.597,-1.562,-0.019,-3.435,10.092,-32.931
124477,9.563,-1.324,0.146,-0.695,10.893,-32.924
124527,9.685,-1.025,0.165,1.908,11.695,-31.901
124577,9.738,-0.793,0.23,4.176,11.664,-30.084
124627,9.841,-0.532,0.462,6.305,11.458,-27.664
124678,9.942,-0.381,0.639,7.908,10.443,-24.45
124727,10.071,-0.177,0.666,9.229,9.214,-21.137
124777,10.088,-0.012,0.786,10.099,7.359,-16.679
124827,10.157,0.139,0.889,10.802,5.55,-12.053
124877,10.287,0.127,0.771,11.557,4.244,-6.656
124928,10.282,0.12,0.762,11.817,3.45,-1.702
124978,10.366,0.074,0.747,11.779,2.863,2.924
125027,10.303,-0.079,0.781,11.595,2.206,6.985
125077,10.39,-0.117,0.893,10.847,1.26,10.817
125127,10.39,-0.247,0.982,9.618,0.015,14.122
125177,10.27,-0.728,0.242,5.977,-0.183,16.107
125228,10.093,-0.728,0.41,-4.099,8.053,13.924
125278,10.387,-0.596,0.884,-3.824,11.832,15.947
125327,10.284,-0.764,1.15,-5.344,10.13,18.145
125377,10.33,-0.996,0.51,-10.84,15.137,18.015
125427,10.519,-0.989,0.546,-13.382,22.702,18.985
125477,10.114,-1.008,1.808,-24.397,21.809,19.473
125528,10.081,-1.042,1.976,-37.893,16.779,20.756
125578,9.978,-1.174,1.995,-53.611,11.427,22.206
125627,9.92,-1.396,2.074,-70.282,5.695,23.206
125677,9.887,-1.648,1.954,-87.656,-1.015,22.977
125727,9.654,-2.117,1.887,-103.802,-7.847,20.733
125777,9.331,-2.021,-0.086,-97.344,-5.832,13.511
125828,9.954,-1.844,-1.372,-75.84,16.55,20.809
125878,9.42,-4.084,2.589,-4.061,8.519,1.817
125928,9.867,-2.306,0.855,13.13,11.496,6.137
125978,9.705,-2.646,0.405,17.557,16.977,0.229
126028,9.913,-2.383,1.815,46.947,25.634,-0.733
126078,10.588,-3.243,0.704,49.527,24.504,-4.237
126129,10.222,-2.536,2.594,37.214,37.87,-13.382
126178,10.452,-2.493,1.768,-1.496,31.748,-17.374
126228,11.707,-1.921,2.584,13.374,23.618,-21.466
126278,11.525,-1.837,3.863,0.046,20.168,-18.13
126328,9.75,-2.225,4.139,4.511,3.863,-14.855
126379,10.03,-1.871,2.038,22.74,-8.275,-17.954
126429,9.997,-0.719,3.444,39.008,-6.718,-12.534
126478,10.409,-1.231,3.027,-3.031,-12.176,-7.489
126528,10.315,-0.831,2.27,-51.435,-12.672,-2.0
126578,10.708,-1.909,2.172,-33.176,-17.656,-2.084
126628,10.117,-2.436,1.696,-21.611,-20.16,-10.969
126679,10.03,-1.667,1.964,21.321,-17.115,-17.527
126729,9.882,-1.72,1.739,-3.092,-20.321,-20.305
126778,10.138,-1.188,1.334,1.893,-16.885,-23.855
126828,9.932,-0.79,1.478,-0.053,-19.122,-23.344
126878,9.238,-0.759,1.351,6.534,-17.534,-23.847
126928,9.393,-0.283,0.774,30.634,-17.847,-22.412
126979,9.901,0.369,0.774,-6.412,-10.573,-16.908
127029,10.088,-0.204,1.092,-30.344,-7.13,-10.794
127078,9.599,-0.625,1.581,0.779,-12.756,-9.786
127128,9.015,0.228,1.114,9.618,-15.534,-6.252
127178,8.974,0.707,0.472,-27.733,-6.679,2.573
127228,8.624,-0.29,0.472,-34.992,1.298,10.771
127279,9.13,-0.347,1.03,-24.382,5.198,12.901
127329,9.027,-0.903,1.427,-39.145,0.786,9.954
127379,9.496,-1.408,1.308,-15.618,-1.534,3.092
127429,9.005,-1.356,1.243,13.008,-3.786,-5.641
127479,9.724,-0.419,1.186,-14.87,-2.313,-7.756
127529,9.712,-0.57,1.396,-8.092,-2.26,-3.977
127580,9.539,-0.944,1.48,-13.542,-2.504,-4.969
127629,9.836,-0.762,1.514,-16.305,1.29,-4.878
127679,9.7,-1.049,1.176,-8.603,3.328,-8.107
127729,10.169,-0.513,1.59,-17.244,5.931,-7.229
127779,9.762,-0.273,1.198,-19.0,6.374,-3.008
127830,10.22,-0.151,1.327,-46.145,6.45,3.962
127880,10.047,-0.515,1.471,-48.626,5.206,7.718
127929,10.006,-0.402,1.413,-60.641,4.29,9.634
127979,9.975,-0.639,1.308,-81.924,3.435,10.313
128029,9.676,-0.632,0.632,-84.672,4.695,10.55
128079,10.368,-0.709,1.128,-55.55,10.466,9.237
128130,9.808,-1.59,1.257,-51.649,10.061,3.878
128180,10.198,-0.798,1.193,-35.252,9.229,-5.16
128229,10.622,-0.141,1.166,-35.0,11.13,-3.817
128279,10.5,-0.747,1.569,-44.817,9.191,-1.023
128329,9.918,-1.442,1.95,-18.069,-0.611,-7.664
128379,9.741,-0.841,1.15,21.328,-5.802,-13.824
128430,9.954,-0.048,0.522,1.656,1.916,-13.771
128480,9.947,0.139,0.944,-13.443,7.282,-5.534
128529,10.502,-0.39,1.686,-51.244,7.244,-1.252
128579,10.727,-0.23,1.468,-13.305,-1.061,-0.183
128629,10.521,-0.273,0.812,-4.947,-0.947,3.427
128679,10.641,-0.534,1.209,-21.122,-1.214,4.58
128730,10.84,-0.457,1.42,-8.305,-5.0,3.756
128779,11.633,0.034,1.346,-25.145,-7.366,6.168
128829,14.54,0.402,2.553,-45.481,-19.176,10.046
128879,14.459,2.16,0.429,-32.015,-13.489,30.305
128929,12.914,1.26,-0.726,-73.733,6.496,46.275
128979,12.658,-0.687,0.129,-131.13,21.885,53.092
129030,12.078,-0.68,-0.798,-79.137,29.947,53.649
129079,11.439,-2.213,0.764,-106.58,36.504,44.191
129129,10.069,-1.875,1.025,-56.099,37.55,27.267
129179,8.002,-1.595,1.14,-27.458,37.382,9.939
129229,5.786,-0.862,1.636,-65.611,38.71,-1.305
129280,4.706,-1.43,1.753,-55.885,31.885,-8.595
129330,4.323,-1.217,1.839,-35.954,24.084,-21.863
129379,3.882,-1.595,1.214,-64.198,19.893,-34.298
129429,4.476,-1.289,1.219,-63.626,19.351,-45.832
129479,4.646,-1.178,1.135,-56.084,20.198,-54.664
129529,4.96,-0.929,0.57,-86.603,25.008,-63.214
129580,6.009,-0.968,1.186,-62.992,32.0,-65.13
129630,6.833,-0.474,1.289,-34.206,20.985,-65.328
129679,7.973,1.351,2.081,-33.481,19.794,-55.076
129729,8.941,0.031,1.36,-73.038,6.252,-41.473
129779,10.452,1.19,1.54,-64.008,2.527,-30.702
129829,9.475,-0.702,0.572,-26.496,-8.481,-25.237
129880,10.287,0.393,2.088,-34.443,-16.931,-27.275
129930,11.218,0.445,-1.684,-28.534,-14.015,-19.817
129979,11.721,-0.34,0.874,6.137,-16.802,-4.198
130029,14.526,0.771,0.965,12.053,-15.45,-10.412
130079,13.819,0.374,2.074,33.588,-26.191,8.412
130129,14.753,-0.393,0.187,-31.366,-28.305,4.954
130180,9.362,-0.996,2.419,44.313,-25.725,11.74
130230,12.121,0.522,1.396,-35.908,-34.847,-9.29
130280,14.183,0.913,-2.153,-74.023,-16.13,11.908
130330,14.677,-0.326,-0.395,-26.702,7.885,21.282
130380,11.788,-2.191,3.154,-59.809,3.985,19.924
130430,7.255,-3.145,2.733,-28.489,-10.771,5.794
130481,11.427,1.938,1.535,16.473,-18.534,14.298
130530,10.854,0.582,1.37,-77.389,-10.87,20.183
130580,11.453,-1.157,0.711,-27.389,-9.947,9.16
130630,10.337,-0.589,0.802,43.763,-9.153,1.969
130680,9.889,0.469,0.893,26.885,-2.313,-1.084
130731,11.235,-0.747,0.771,-3.359,6.275,-6.672
130781,9.973,0.323,0.618,6.87,3.031,-6.282
130830,10.152,0.28,-0.017,15.313,7.198,-2.076
130880,9.951,-1.085,0.141,34.206,13.71,-0.13
130930,9.242,0.795,1.449,55.55,18.992,-4.45
130980,10.1,0.036,1.569,22.183,10.214,-7.252
131031,11.278,-0.127,0.601,-0.336,0.26,2.328
131081,9.527,3.854,1.844,-14.275,-5.0,10.076
131130,13.338,1.396,0.968,-7.061,-9.947,18.55
131180,10.124,-0.551,-0.117,-3.542,-6.786,18.084
131230,10.076,-0.704,0.673,-2.802,-3.282,20.389
131280,9.915,-2.448,1.545,-2.328,-8.939,7.878
131331,9.98,-1.147,-0.043,-3.504,-12.26,-2.618
131381,10.112,-0.498,-0.474,-3.221,-3.344,-1.008
131430,10.081,-0.814,0.402,-2.878,-1.855,-0.458
131480,10.006,-0.4,-0.405,-3.023,1.496,1.626
131530,10.157,-0.968,0.002,-3.641,3.565,3.573
131580,9.968,-1.849,0.024,-3.191,8.427,-5.779
131631,10.081,-0.338,0.527,-3.252,9.718,-9.771
131681,10.133,0.187,1.178,-3.29,7.221,-3.473
