time_ms,ax,ay,az,gx,gy,gz
59,9.985,-0.01,1.245,-3.26,1.336,-1.344
109,9.118,0.34,1.499,-3.229,-0.313,-0.603
159,10.361,-0.35,0.987,-3.382,0.344,-0.947
209,10.05,-0.189,1.403,-3.137,3.649,-1.756
260,10.071,-0.091,1.317,-3.153,-0.656,-0.756
309,10.064,0.019,1.073,-3.16,3.237,-1.878
359,10.117,-0.201,1.535,-3.29,-2.053,-0.519
409,10.114,-0.069,1.071,-3.328,-0.908,-0.55
459,10.054,-0.053,1.02,-3.573,1.756,-1.237
509,10.052,0.057,1.516,-3.351,1.908,-1.214
560,10.064,0.12,1.473,-3.374,-0.053,-0.672
609,10.061,-0.086,1.217,-3.305,0.053,-0.71
659,10.093,-0.026,1.245,-3.313,1.244,-1.046
709,10.064,0.0,1.442,-3.313,1.16,-1.168
759,10.014,-0.002,1.461,-3.176,0.206,-0.84
809,10.061,-0.108,1.209,-3.16,0.55,-0.893
860,10.021,0.053,1.387,-3.313,1.061,-1.115
909,10.095,0.034,1.399,-3.137,0.649,-0.947
959,10.054,-0.024,1.324,-3.16,0.427,-0.962
1009,10.054,-0.046,1.308,-3.206,0.908,-1.069
1059,10.088,0.029,1.281,-3.359,0.924,-1.053
1110,10.052,0.057,1.324,-3.45,0.603,-0.962
1160,10.076,-0.041,1.339,-3.252,0.809,-0.84
1209,10.047,0.019,1.38,-3.542,0.794,-0.939
1259,10.054,-0.031,1.312,-3.26,0.71,-0.847
1309,10.038,0.031,1.346,-3.267,0.687,-1.115
1359,10.014,0.007,1.296,-3.344,0.885,-1.0
1410,10.026,0.048,1.353,-3.275,0.763,-0.863
1460,10.038,-0.01,1.31,-3.206,0.809,-0.779
1510,10.028,0.019,1.365,-3.298,0.779,-0.87
1560,10.035,0.041,1.356,-3.244,0.519,-0.977
1610,10.061,0.022,1.372,-3.191,0.802,-0.931
1660,10.04,-0.01,1.372,-3.221,0.809,-1.015
1711,10.061,0.022,1.365,-3.229,0.809,-0.885
1760,10.04,0.0,1.43,-3.473,0.878,-0.878
1810,10.028,0.017,1.336,-3.252,0.71,-0.931
1860,10.272,-0.893,5.528,1.031,4.87,-1.092
1910,10.002,1.65,0.687,-4.84,0.389,-0.809
1960,9.949,-0.089,1.085,-3.397,-1.061,-0.763
2011,10.351,0.86,1.31,-2.038,3.427,-1.786
2060,10.129,0.345,1.621,-3.397,0.962,-1.031
2110,10.117,0.017,1.351,-3.366,-0.198,-1.092
2160,10.047,-0.196,1.526,-3.069,-1.641,-0.29
2210,10.184,-0.508,2.74,-3.275,1.534,-1.076
2260,10.129,-0.086,1.724,-3.244,0.771,-0.962
2311,10.081,0.053,1.255,-3.183,0.16,-0.832
2360,10.143,0.022,1.576,-3.13,1.702,-1.214
2410,9.994,-0.046,1.267,-3.344,0.206,-0.756
2460,9.999,0.012,1.248,-3.214,0.641,-1.069
2510,10.083,0.069,1.506,-3.267,-0.664,-0.672
2561,10.064,-0.235,1.056,-3.458,0.214,-0.962
2611,9.987,-0.012,1.595,-3.26,1.26,-1.336
2660,10.054,0.069,1.494,-3.252,-1.298,-0.328
2710,10.109,0.074,1.111,-3.137,0.305,-0.824
2760,10.069,0.268,1.384,-3.298,0.45,-0.718
2810,10.081,-0.053,1.162,-3.351,0.626,-0.794
2861,10.088,-0.002,1.413,-3.321,-0.031,-0.634
2911,10.052,-0.046,1.135,-3.313,2.008,-1.191
2961,10.085,-0.062,1.36,-3.206,1.458,-1.191
3011,10.076,0.067,1.487,-3.145,0.511,-0.847
3061,10.126,0.014,1.255,-3.328,-0.237,-0.733
3111,10.109,-0.12,1.212,-3.282,2.763,-1.443
3162,10.124,-0.031,1.633,-3.237,2.046,-1.298
3258,10.061,-0.043,1.231,-3.305,-1.069,-0.458
3308,10.047,-0.105,0.992,-3.252,0.527,-0.863
3358,9.927,0.263,-0.326,-3.038,2.832,-1.198
3408,10.028,0.014,1.547,-3.282,0.832,-0.863
3459,10.059,-0.096,1.348,-3.252,1.16,-1.122
3508,10.085,0.007,1.26,-3.26,1.611,-1.298
3558,10.028,-0.024,1.066,-3.511,2.023,-1.595
3608,10.083,-0.11,1.305,-3.42,-0.573,-0.641
3658,10.03,0.091,1.284,-3.313,1.42,-1.153
3708,10.081,0.148,1.485,-3.168,0.076,-0.893
3759,10.112,-0.048,1.198,-3.344,1.023,-1.069
3808,10.078,-0.007,1.554,-3.412,0.214,-0.901
3858,10.057,-0.127,1.643,-3.275,2.71,-2.069
3908,10.035,-0.093,1.269,-3.298,-0.45,-0.473
3958,10.09,0.024,1.358,-3.275,0.977,-1.115
4008,10.033,0.067,1.442,-3.122,0.473,-0.863
4059,10.038,-0.323,1.322,-3.13,1.107,-1.229
4108,10.112,-0.553,4.804,-3.137,0.153,-0.786
4158,10.05,-0.18,1.121,-3.153,1.664,-1.26
4208,10.035,0.148,1.631,-3.42,-0.42,-0.389
4258,9.932,-1.734,1.672,-3.176,-2.977,-1.244
4308,10.102,-0.345,0.73,-3.214,2.908,-1.695
4359,10.198,-0.211,2.357,-3.427,3.511,-2.145
4408,10.088,-0.314,1.291,-3.366,-0.809,-0.466
4458,10.057,-0.4,1.48,-3.145,0.649,-0.969
4508,9.899,-0.062,2.041,-3.076,-5.336,0.947
4558,10.052,-0.199,0.843,-3.198,-3.779,0.229
4609,10.141,-0.23,0.304,-3.229,1.443,-1.023
4659,10.124,0.362,1.54,-3.191,4.786,-1.878
4708,10.033,-0.422,1.106,-3.153,2.557,-1.893
4758,10.033,-0.148,0.963,-3.267,1.779,-1.153
4808,10.066,0.132,1.763,-3.374,2.748,-1.42
4858,10.076,0.649,1.511,-3.206,-1.405,-0.527
4909,10.059,-0.024,1.265,-3.511,-1.771,-0.16
4959,10.016,-0.091,1.039,-3.366,0.13,-1.008
5009,10.081,0.084,1.624,-3.122,-0.305,-0.618
5059,10.076,-0.036,1.08,-3.435,0.336,-0.924
5109,9.97,0.79,1.516,-4.931,1.252,-0.954
5159,10.112,0.067,1.051,-3.397,3.176,-1.611
5210,10.057,0.077,1.55,-3.137,0.718,-0.733
5259,10.16,-0.129,0.769,-3.389,3.275,-1.832
5309,10.088,0.057,1.837,-3.26,3.328,-1.603
5359,10.102,0.158,1.48,-3.389,1.611,-1.611
5409,10.081,0.029,1.562,-3.389,0.191,-0.519
5459,10.179,-0.256,0.877,-3.038,2.008,-1.527
5510,10.018,0.331,1.597,-3.435,0.557,-1.359
5559,10.035,0.014,0.699,-3.458,-1.794,-0.427
5609,10.059,0.323,1.626,-3.519,1.557,-1.305
5659,10.085,0.127,1.358,-3.489,-0.947,-0.443
5709,9.975,-0.091,1.121,-3.168,0.282,-0.809
5760,10.133,-0.074,1.303,-3.344,1.794,-1.389
5810,10.095,0.046,1.442,-3.45,1.206,-1.145
5859,10.052,-0.062,1.459,-3.168,0.069,-0.771
5909,10.088,-0.065,1.277,-3.298,0.641,-0.916
5959,10.105,-0.002,1.329,-3.275,1.153,-1.229
6009,10.102,0.014,1.485,-3.344,0.817,-0.954
6060,10.121,0.031,1.289,-3.267,0.534,-0.779
6110,10.1,0.055,1.267,-3.252,0.786,-1.137
6159,10.057,0.057,1.42,-3.344,0.908,-0.962
6209,10.066,-0.022,1.308,-3.267,0.687,-1.0
6259,10.05,0.046,1.372,-3.359,0.634,-0.863
6309,10.102,-0.01,1.293,-3.16,0.794,-0.885
6360,10.035,0.024,1.353,-3.13,0.779,-0.969
6409,10.069,-0.007,1.334,-3.397,0.695,-1.023
6459,10.133,0.05,1.332,-3.344,0.672,-0.878
6509,10.038,0.086,1.284,-3.252,0.771,-0.901
6559,10.006,0.048,1.3,-3.282,0.641,-0.84
6609,10.136,0.017,1.368,-3.237,0.733,-1.069
6660,10.016,-0.005,1.356,-3.275,0.565,-0.977
6709,10.162,-0.014,1.279,-3.229,0.794,-0.863
6759,10.047,-0.031,1.269,-3.229,0.748,-1.0
6809,10.085,0.038,1.353,-3.382,0.55,-0.817
6859,10.059,0.014,1.336,-3.198,0.489,-0.771
6909,10.121,-0.029,1.284,-3.298,0.74,-1.0
6960,10.076,-0.026,1.341,-3.282,0.725,-0.992
7009,10.016,0.012,1.305,-3.191,0.641,-1.0
7059,10.085,0.007,1.257,-3.244,0.71,-0.908
7109,10.014,-0.041,1.372,-3.435,0.702,-1.023
7159,10.018,-0.031,1.303,-3.29,0.649,-0.863
7209,10.016,-0.002,1.37,-3.366,0.916,-0.977
7260,10.04,-0.038,1.315,-3.275,0.939,-1.076
7309,10.069,0.014,1.296,-3.321,0.763,-0.878
7359,10.069,-0.014,1.37,-3.412,0.855,-1.0
7409,10.093,0.012,1.32,-3.023,0.771,-1.031
7459,10.088,-0.029,1.303,-3.191,0.664,-0.893
7510,10.078,0.002,1.32,-3.382,0.847,-0.908
7560,10.119,0.017,1.31,-3.313,0.74,-1.031
7609,10.04,-0.036,1.305,-3.183,0.725,-0.931
7659,10.035,0.029,1.317,-3.42,1.023,-1.145
7709,9.932,0.139,1.447,-3.786,0.626,-0.847
7759,10.018,0.189,1.128,-3.466,1.45,-1.015
7810,10.006,0.115,1.468,-3.183,1.168,-1.046
7860,10.064,0.237,1.341,-3.275,-0.183,-0.916
7910,10.05,-0.817,0.601,-4.321,1.321,-1.595
7960,9.968,0.117,1.3,-3.45,1.832,-1.145
8010,10.011,-0.141,1.277,-3.466,0.992,-1.031
8060,10.047,-0.012,1.26,-3.237,0.908,-1.031
8111,10.011,0.034,1.418,-3.176,-0.145,-0.87
8160,10.021,-0.036,1.401,-3.191,-0.16,-0.466
8210,10.093,0.072,1.212,-3.214,0.977,-0.878
8260,10.097,0.069,1.351,-3.405,0.557,-0.725
8310,10.133,0.053,1.317,-3.382,1.153,-1.115
8360,10.145,0.079,1.432,-3.252,0.992,-1.061
8411,10.042,-0.072,1.269,-3.55,0.427,-0.947
8460,10.004,-0.086,1.317,-3.336,0.702,-1.076
8510,10.073,-0.065,1.32,-3.206,0.779,-1.0
8560,10.042,-0.029,1.372,-3.328,0.832,-1.015
8610,10.002,0.005,1.358,-3.244,0.618,-0.878
8660,10.066,0.014,1.298,-3.389,0.786,-0.908
8711,10.054,0.038,1.389,-3.412,0.901,-0.969
8760,10.1,0.005,1.36,-3.282,0.649,-0.908
8810,10.045,0.024,1.322,-3.176,0.74,-1.0
8860,10.09,0.055,1.36,-3.366,0.802,-1.084
8910,10.143,0.022,1.449,-3.244,0.771,-1.084
8961,10.112,0.065,1.399,-3.359,-0.435,-0.786
9011,10.073,0.096,1.329,-3.29,-0.321,-0.649
9060,10.03,-0.127,1.049,-3.252,0.115,-0.733
9110,9.992,-0.01,1.37,-3.153,0.45,-0.969
9160,10.088,-0.022,1.303,-3.366,1.099,-0.916
9210,10.016,-0.091,1.265,-3.26,0.901,-1.145
9261,10.054,-0.089,1.092,-3.244,1.962,-1.275
9311,10.04,0.151,1.471,-3.366,1.779,-1.244
9361,10.033,0.014,1.26,-3.16,0.565,-0.962
9411,10.014,0.026,1.372,-3.252,1.282,-1.267
9461,10.105,-0.022,1.269,-3.137,0.0,-0.718
9511,10.064,-0.065,1.126,-3.328,1.794,-1.145
9562,10.047,0.012,1.471,-3.359,1.374,-1.076
9611,10.035,0.019,1.358,-3.214,-0.008,-0.756
9661,10.1,0.012,1.406,-3.275,1.237,-1.084
9711,10.042,0.069,1.255,-3.229,-0.427,-0.702
9761,10.038,-0.053,1.176,-3.351,1.107,-1.099
9811,10.047,0.038,1.48,-3.145,0.908,-1.061
9862,10.1,0.057,1.284,-3.191,1.122,-0.962
9911,10.107,-0.014,1.344,-3.298,0.771,-1.069
9961,10.09,-0.043,1.291,-3.221,1.237,-1.298
10011,10.045,0.05,1.377,-3.336,1.374,-1.092
10061,10.117,-0.115,1.267,-3.298,1.0,-1.122
10112,10.093,-0.002,1.262,-3.183,1.16,-1.313
10162,10.047,-0.115,1.212,-3.244,2.092,-2.229
10211,10.059,-0.069,1.447,-3.298,1.702,-1.794
10261,10.073,0.192,1.461,-3.435,1.55,-2.092
10311,10.014,0.216,1.597,-3.489,0.458,-0.878
10361,10.095,-0.055,1.279,-3.366,0.206,-0.382
10412,9.963,-0.148,1.229,-3.252,-0.611,0.046
10462,10.05,-0.048,1.348,-3.206,-0.122,-0.336
10511,10.143,-0.105,1.152,-3.359,1.702,-1.733
10561,10.078,0.467,1.782,-3.191,1.023,-0.931
10611,10.124,-0.206,1.257,-3.351,-0.076,-0.099
10661,10.083,-0.117,1.145,-3.397,0.786,-1.107
10712,10.107,0.201,1.459,-3.374,0.672,-1.046
10761,10.073,-0.194,1.13,-3.206,2.153,-1.824
10811,10.035,0.247,1.504,-3.229,2.496,-2.786
10861,9.911,0.977,1.88,-3.336,-2.542,2.641
10911,10.141,0.074,-0.307,-3.29,0.74,-0.771
10961,9.908,0.74,2.065,-3.359,2.076,-2.038
11012,10.038,-0.56,0.984,-3.023,-5.099,-0.076
11061,10.083,-0.754,0.623,-3.137,4.252,-2.397
11111,10.054,-0.508,1.296,-3.336,0.26,-0.878
11161,10.138,-0.24,1.083,-3.275,2.733,-1.55
11211,10.107,-0.014,1.308,-3.282,1.908,-1.618
11261,10.09,-0.048,1.09,-3.344,1.168,-1.275
11312,10.03,0.0,1.684,-3.275,-0.069,-0.458
11361,10.136,0.225,1.198,-3.115,0.267,-0.855
11411,10.054,-0.06,1.308,-3.069,1.267,-1.412
11461,10.093,-0.065,1.418,-3.214,1.153,-1.832
11511,10.011,0.223,1.413,-3.29,1.061,-0.977
11561,10.052,-0.254,1.243,-3.244,-0.237,-1.053
11612,10.009,0.244,1.253,-3.176,1.13,-1.527
11661,10.05,0.036,1.332,-3.115,-0.664,-0.595
11711,10.097,-0.026,1.047,-3.046,2.824,-1.901
11761,10.085,0.024,1.497,-3.511,3.908,-2.908
11811,9.982,-0.101,1.6,-3.55,4.863,-4.221
11862,9.963,0.402,1.873,-3.267,0.802,-2.13
11912,10.026,0.242,1.494,-3.977,-0.374,0.641
11961,10.047,-0.017,1.368,-3.13,2.282,-3.221
12011,10.26,-1.073,1.758,-3.344,1.885,-1.137
12061,10.035,0.73,1.839,-3.328,0.366,-0.489
12111,10.071,-0.251,1.181,-3.183,-1.817,2.557
12162,10.083,-0.024,1.193,-3.336,0.695,-0.687
12212,10.064,-0.046,1.315,-3.336,1.649,-1.947
12262,10.026,-0.113,1.506,-3.458,2.809,-3.473
12312,9.939,0.783,2.211,-2.992,-0.321,0.275
12362,10.045,0.148,1.506,-3.366,-1.481,1.427
12412,9.966,0.551,1.681,-3.427,-3.198,3.962
12463,10.193,-0.936,-0.17,-3.115,0.031,-1.145
12512,9.939,0.431,1.609,-3.412,3.16,-2.878
12562,10.038,0.192,1.614,-3.366,0.473,-0.641
12612,10.052,-0.196,1.269,-3.16,1.023,-1.153
12662,10.076,-0.101,1.243,-3.13,1.817,-1.962
12712,10.081,0.048,1.442,-3.282,1.55,-2.053
12763,10.054,-0.278,1.233,-3.282,0.626,-0.725
12812,10.078,0.165,1.586,-3.244,1.153,-1.504
12862,10.05,0.285,1.494,-3.321,0.466,-0.58
12912,10.126,-0.101,1.26,-3.229,0.458,-0.229
12962,10.09,-0.036,1.425,-3.237,-0.031,-0.611
13012,10.117,0.046,1.511,-3.206,-0.542,0.305
13063,10.047,0.117,1.437,-3.168,-0.511,-0.092
13112,9.987,-0.247,1.279,-3.42,-0.145,-0.176
13162,10.078,-0.022,1.3,-3.061,1.26,-1.611
13212,10.016,-0.081,1.358,-2.939,0.885,-1.733
13262,10.038,-0.002,1.245,-3.42,2.237,-1.901
13313,10.018,0.364,1.499,-3.412,0.824,-0.863
13363,10.088,-0.52,1.193,-3.679,-0.107,1.046
13412,10.071,-0.057,1.291,-3.244,0.794,-1.267
13462,10.157,-0.39,0.738,-3.489,3.656,-3.855
13512,10.097,0.237,1.487,-3.55,4.672,-5.427
13562,9.975,0.429,1.739,-3.42,1.519,-2.145
13613,9.997,2.026,1.166,-3.282,-4.328,5.252
13663,10.351,-1.688,1.284,-3.557,-6.336,5.382
13713,10.095,-0.412,0.723,-3.298,1.366,-1.473
13763,10.15,0.158,1.784,-3.42,2.885,-1.481
13813,10.073,0.074,1.274,-3.305,0.542,-0.939
13863,10.054,0.113,1.274,-3.412,0.298,-0.931
13914,10.169,-0.311,1.221,-3.45,1.466,-1.763
13963,9.973,0.23,1.114,-3.977,0.664,-2.389
14013,10.059,-0.196,1.243,-3.153,2.412,-2.695
14063,9.872,0.884,2.599,-3.076,0.931,-1.092
14113,10.05,0.228,1.42,-3.351,-1.443,0.076
14163,10.085,-0.436,0.821,-3.237,-0.328,-0.053
14214,10.035,-0.026,1.459,-3.26,1.481,-1.969
14263,10.095,0.043,1.576,-3.267,1.954,-2.252
14313,10.107,0.184,1.3,-3.229,0.45,-1.053
14363,10.093,0.156,1.631,-3.511,-0.061,-0.069
14413,10.203,-0.06,1.451,-3.405,-1.008,0.168
14464,10.05,-0.005,1.399,-3.206,1.221,-1.511
14514,10.138,0.326,1.401,-3.397,0.687,-0.809
14563,10.035,-0.113,1.312,-3.374,1.511,-1.45
14613,10.076,-0.005,1.392,-3.198,-0.061,-0.87
14663,10.105,-0.062,1.289,-3.198,1.206,-1.427
14713,10.05,0.048,1.298,-3.351,1.695,-1.198
14764,10.011,-0.053,1.351,-3.557,2.183,-1.26
14814,10.042,0.331,1.586,-3.26,-0.389,-0.328
14863,10.109,-0.345,0.891,-3.527,0.832,-0.695
14913,10.121,0.441,2.072,-3.29,-1.511,1.0
14963,10.002,-0.364,0.862,-3.176,-1.427,0.053
15013,10.045,0.467,2.326,-3.374,-1.26,-0.069
15064,10.109,0.398,0.92,-3.962,2.191,0.397
15113,10.047,-0.024,1.468,-3.412,-1.053,-0.985
15163,10.105,-0.062,0.589,-3.26,2.198,-2.183
15213,10.121,-0.084,1.274,-3.198,0.855,-1.359
15263,10.157,0.347,1.351,-3.405,4.893,-1.069
15313,10.081,-0.58,1.142,-3.282,1.573,-1.901
15364,9.973,0.386,1.811,-3.13,-1.16,-1.176
15413,10.121,-0.783,1.358,-3.466,-2.603,1.221
15463,10.035,-0.261,0.958,-3.328,1.168,-1.824
15513,10.069,0.204,1.648,-2.603,1.969,-2.901
15563,10.217,0.036,1.667,-3.305,-2.298,0.817
15613,9.939,-0.148,1.044,-3.16,-0.466,-1.038
15664,10.112,0.295,1.494,-3.023,-0.519,-0.656
15713,10.083,-0.074,1.209,-3.191,-1.145,-0.229
15763,10.076,0.11,0.69,-3.511,2.16,0.092
15813,10.109,-0.113,1.59,-3.282,0.046,0.0
15863,10.018,-0.898,2.517,-3.244,-5.084,0.206
15913,10.038,0.786,0.134,-3.42,-8.412,0.779
15964,10.05,-1.245,0.062,-3.0,8.817,-3.817
16013,10.344,0.584,1.291,-3.557,16.649,-4.87
16063,9.853,1.193,3.111,-3.924,1.107,1.145
16113,10.186,-1.684,-0.508,-3.191,-0.779,0.58
16163,9.899,-0.256,1.811,-2.817,2.366,-4.565
16214,10.248,0.309,-0.417,-3.015,2.695,-2.038
16264,9.954,0.438,1.724,-3.588,2.725,-4.328
16313,10.033,0.307,1.703,-2.557,0.748,-3.435
16363,10.215,-0.963,1.842,-1.626,-2.45,-3.336
16413,10.181,0.029,3.231,-17.672,-12.809,-4.87
16463,11.954,0.019,1.693,-38.16,-30.229,-7.641
16514,13.297,-0.429,-0.898,-43.557,-20.786,-10.153
16564,12.085,-0.395,-0.853,26.55,-3.634,-9.855
16614,12.773,0.309,-0.431,41.588,7.221,-6.855
16664,11.431,0.077,0.572,52.763,10.267,-3.153
16714,11.74,0.944,0.683,57.84,8.985,-2.313
16764,11.115,0.187,1.286,58.893,4.519,8.664
16815,12.157,0.556,0.465,34.527,0.763,13.313
16864,11.601,-0.453,1.121,36.031,-1.603,14.656
16914,12.198,-0.002,0.043,11.122,2.275,12.313
16964,11.546,-0.661,1.087,35.237,-0.489,6.015
17014,11.628,0.898,-0.596,25.702,2.031,5.565
17064,10.888,0.632,-0.371,52.595,14.244,15.244
17115,8.476,0.513,0.594,67.618,23.809,23.397
17164,10.033,0.338,0.992,70.939,16.939,21.092
17214,8.945,-0.702,1.988,32.26,15.725,18.328
17264,9.688,0.256,1.456,43.076,-2.763,14.832
17314,8.845,-0.34,1.284,8.191,-7.336,10.87
17364,8.035,-0.165,0.354,50.252,-11.305,8.313
17415,7.738,-0.697,2.555,110.206,-26.855,7.252
17464,6.941,-0.141,-0.172,-3.962,-13.763,10.145
17514,6.792,0.029,-0.41,14.588,3.321,11.221
17564,6.579,0.01,0.764,157.298,4.26,10.924
17614,6.696,-0.05,3.916,28.931,-16.221,-0.023
17665,9.609,-0.204,-0.606,18.336,-14.611,10.664
17715,9.781,-1.13,0.932,45.794,-6.206,6.26
17764,10.567,-1.518,1.018,42.473,-14.038,-0.542
17814,10.229,-1.789,0.661,40.16,-17.053,-3.725
17864,8.921,-1.904,2.45,13.718,-20.267,-10.496
17914,9.472,-0.752,1.334,39.695,-26.313,-14.473
17965,9.592,-1.061,0.127,27.122,-18.527,-13.115
18015,10.768,-1.059,-0.206,35.336,-5.611,-12.992
18065,10.335,-1.277,1.03,14.0,-2.634,-11.046
18115,9.8,0.292,0.747,26.55,1.916,-9.321
18165,10.275,-1.243,-0.213,18.427,6.26,-8.695
18215,9.753,-1.389,2.237,22.557,4.229,-10.206
18266,10.567,-1.099,0.364,19.023,-6.656,-15.756
18315,10.77,-1.835,0.256,32.878,-5.649,-19.573
18365,10.663,0.546,0.223,6.244,-4.916,-18.496
18415,10.447,-1.427,0.575,20.145,-6.298,-12.985
18465,10.358,0.697,-0.127,-4.313,-4.069,-8.115
18515,9.793,-0.041,0.56,8.763,-9.099,0.313
18566,10.591,0.843,0.053,-19.87,-11.015,13.13
18615,10.531,-1.145,0.342,6.069,-11.893,16.137
18665,10.169,-0.309,0.002,-12.832,-11.504,17.191
18715,10.394,-1.408,-0.29,20.473,-2.802,-1.053
18765,9.937,-0.824,-0.151,6.305,1.282,-5.031
18816,10.071,-0.659,1.09,-9.985,3.053,9.168
18866,10.725,-1.233,1.159,18.573,-0.237,-13.947
18915,10.248,-1.983,0.251,26.954,-2.198,-23.099
18965,10.052,-1.147,-0.637,53.496,2.573,-26.954
19015,10.009,-0.568,-0.283,57.16,12.115,-27.405
19065,10.655,0.084,1.286,22.313,3.443,-27.153
19116,10.421,0.479,0.74,14.863,0.321,-18.87
19166,10.469,-0.196,0.263,14.122,5.832,-11.847
19215,9.832,-0.242,0.386,19.824,9.939,-13.924
19265,9.896,0.254,0.125,2.893,15.672,-9.679
19315,9.786,0.331,1.265,8.405,16.015,-3.405
19365,9.911,0.728,0.924,-20.496,12.809,9.008
19416,9.602,-0.084,1.262,-5.901,9.947,16.687
19465,9.436,-0.364,1.049,-17.664,5.939,18.947
19515,9.472,-0.378,1.368,-3.733,2.038,15.198
19565,9.254,-0.608,0.778,-16.397,-0.786,12.397
19615,9.489,-0.771,0.922,-8.443,0.046,5.466
19665,9.348,-0.651,0.412,1.84,2.237,0.656
19716,9.671,-0.532,0.716,-1.824,3.55,-2.916
19765,9.563,-0.345,0.436,2.061,6.023,-4.702
19815,9.724,-0.139,0.457,1.756,9.733,-4.038
19865,9.499,0.0,0.393,2.771,13.763,-2.053
19915,9.101,0.108,0.639,6.405,14.618,1.733
19965,9.044,0.352,0.639,-5.931,14.794,7.901
20016,9.302,-0.084,0.721,-0.42,14.221,10.542
20065,9.628,-0.28,0.831,-12.489,11.412,11.885
20115,9.556,-0.436,0.917,6.992,11.0,8.122
20165,9.13,-0.146,0.68,-2.076,6.954,7.786
20215,9.183,-0.419,1.574,3.656,3.511,5.084
20265,9.628,0.034,1.205,0.198,-4.198,3.74
20316,10.1,-0.194,-0.019,11.71,-0.305,5.618
20365,10.382,0.393,1.363,-5.008,1.855,7.511
20415,10.914,-0.716,0.548,3.847,3.611,7.374
20465,10.682,-0.412,2.503,-14.962,-4.053,2.107
20515,10.507,-0.632,1.356,-22.298,-15.489,-4.122
20566,10.181,-0.24,0.762,1.809,-15.0,-5.321
20616,10.227,-0.364,0.893,-20.939,-14.443,-6.107
20665,10.44,-0.165,0.156,-13.13,-10.84,-4.931
20715,10.387,-0.163,1.437,-9.275,-6.351,-3.817
20765,10.349,-0.292,0.378,-19.252,-6.275,-3.023
20815,10.222,-0.127,1.004,12.336,-2.344,-4.351
20866,10.152,-0.328,0.836,-15.947,-2.344,-3.267
20916,10.315,-0.266,0.98,5.45,-0.427,-5.336
20966,10.095,-0.271,0.651,-26.031,-0.053,-5.595
21016,10.059,-0.395,0.843,4.229,3.489,-7.275
21066,10.196,0.113,0.742,-16.076,4.122,-6.748
21116,10.069,-0.249,0.81,3.87,7.13,-4.969
21167,9.937,-0.115,1.293,-13.252,5.45,-5.107
21216,9.901,-0.194,0.75,-8.0,4.038,-5.069
21266,9.99,-0.055,1.032,-4.603,7.366,-3.687
21316,10.193,-0.4,1.315,-8.679,3.756,-5.099
21366,10.124,-0.204,1.176,-8.656,2.328,-5.87
21416,10.449,0.014,1.317,-25.221,-2.466,-7.008
21467,10.081,-0.156,0.462,-3.733,0.076,-5.718
21516,10.421,0.101,1.312,-16.076,-1.626,-5.282
21566,9.997,-0.122,0.513,-3.702,0.214,-3.389
21616,10.277,0.086,1.334,-16.313,-0.924,-2.55
21666,10.222,-0.184,0.992,-11.374,-2.061,-2.115
21716,10.373,-0.019,0.723,-16.74,-3.099,-0.954
21767,10.179,-0.172,0.51,2.664,0.252,0.061
21816,10.358,0.067,0.484,-0.824,4.359,1.397
21866,10.263,-0.046,1.051,3.985,5.641,2.069
21916,10.251,-0.153,0.944,-12.679,4.076,2.298
21966,9.987,-0.364,0.889,-2.55,2.885,1.26
22017,10.097,-0.378,1.08,-10.901,1.0,-0.939
22067,10.162,0.077,0.661,-5.115,0.748,-1.595
22116,10.069,-0.125,1.075,-6.489,1.282,-0.573
22166,9.669,-0.29,1.176,-8.779,-1.87,-2.107
22216,9.808,-0.213,1.027,-16.305,-3.969,-3.527
22266,9.597,-0.117,0.525,-6.794,-2.893,-3.237
22317,9.894,0.046,0.505,5.588,0.099,-1.786
22367,9.587,-0.036,0.843,17.053,4.519,-0.26
22417,9.657,-0.074,0.781,1.313,5.099,0.267
22467,9.7,-0.201,0.994,10.122,5.252,-0.069
22517,9.803,0.0,1.281,-5.84,2.519,-0.458
22567,10.196,0.084,1.071,0.718,0.206,1.443
22618,10.081,-0.266,1.384,-15.092,-3.198,0.725
22667,12.169,-0.24,0.807,-19.237,-5.511,-1.26
22717,10.126,-0.168,0.764,-8.26,-7.405,-3.817
22767,10.301,-0.445,0.85,-8.176,-5.26,-3.344
22817,10.141,0.223,0.271,-5.427,-2.817,-3.847
22867,9.935,-0.146,0.525,8.618,4.244,2.908
22918,9.709,0.0,0.642,14.267,4.817,3.198
22967,9.822,-0.417,1.463,8.374,3.115,2.046
23017,9.626,0.16,0.788,4.359,-0.374,2.458
23067,9.954,-0.263,1.051,-7.824,-2.962,4.389
23117,9.891,-0.292,0.192,4.344,-0.374,3.374
23168,10.15,-0.754,1.142,6.26,0.55,-0.916
23218,9.731,0.199,0.788,2.13,2.069,-4.053
23267,10.325,-0.532,0.781,1.847,4.969,-5.137
23317,9.942,0.328,1.159,5.595,6.634,-3.374
23367,10.55,-0.002,1.36,-5.626,4.45,-0.863
23417,10.524,0.249,1.382,-4.511,3.26,1.695
23468,10.502,0.189,1.523,-23.588,-0.901,3.496
23518,10.289,-0.659,1.186,-15.481,-2.885,1.557
23567,10.62,-0.117,0.872,-18.466,-2.183,-1.519
23617,10.505,-0.017,0.877,-9.313,0.466,1.565
23667,10.198,-0.429,1.133,-5.962,1.176,0.168
23717,10.176,-0.393,0.968,-21.229,-0.878,-1.779
23768,10.054,-0.45,0.783,-21.809,-2.099,-0.237
23817,9.903,-0.651,0.625,-15.748,-3.031,-2.847
23867,10.402,-0.093,-0.29,8.763,-0.275,-2.069
23917,10.179,-0.074,0.28,15.695,5.42,2.069
23967,10.445,-0.719,0.769,28.305,4.901,2.603
24017,10.133,-0.046,0.989,26.756,0.328,3.298
24068,10.002,-0.695,0.541,5.71,0.198,4.595
24117,9.848,-0.316,0.869,1.137,-0.321,4.458
24167,9.786,-0.517,0.968,7.366,-1.557,6.16
24217,9.86,-0.393,1.039,11.763,-2.565,9.55
24267,10.121,-0.52,1.238,12.794,-3.649,13.069
24317,10.378,-0.613,1.289,12.435,-6.16,15.252
24368,10.56,-0.795,1.198,10.832,-7.832,17.679
24417,10.742,-1.09,1.145,10.053,-9.824,19.282
24467,10.909,-1.183,1.073,2.145,-5.634,11.824
24517,10.981,-1.226,1.083,-5.649,-4.107,9.779
24567,10.866,-1.26,0.944,-2.328,-6.954,10.634
24617,10.897,-2.055,-0.002,-9.473,-2.198,6.092
24668,10.531,-2.285,-0.153,-2.603,1.908,-1.794
24717,9.911,-2.235,-0.206,-4.237,11.817,-11.718
24767,9.669,-1.545,0.347,11.84,13.443,-14.153
24817,9.932,-1.547,0.146,23.489,15.221,-13.427
24867,9.872,-1.76,0.057,32.206,19.733,-15.901
24918,9.681,-1.636,0.108,37.901,24.794,-19.351
24968,9.513,-1.389,0.493,40.427,29.427,-22.664
25017,9.226,-1.037,0.992,37.969,31.985,-24.412
25067,9.178,-0.565,1.55,29.466,33.031,-24.221
25117,9.187,-0.067,2.237,13.55,32.382,-21.382
25167,9.252,0.414,2.773,-9.672,30.046,-15.71
25218,9.427,0.814,3.406,-39.366,25.29,-7.817
25268,9.52,0.833,3.846,-74.305,17.71,1.298
25318,9.733,0.56,4.359,-112.321,6.832,9.931
25368,9.786,-0.024,4.438,-149.87,-7.076,15.656
25418,9.896,-0.687,4.158,-183.237,-23.427,16.336
25468,10.061,-1.432,3.533,-208.771,-38.282,10.435
25519,10.167,-1.95,2.39,-223.412,-49.084,-1.55
25568,10.224,-2.045,1.19,-225.985,-52.824,-16.557
25618,10.337,-1.772,0.031,-217.389,-49.046,-31.198
25668,10.301,-1.025,-1.018,-199.763,-38.198,-41.16
25718,10.332,-0.127,-1.691,-176.603,-23.183,-44.229
25768,10.239,0.814,-1.957,-151.55,-6.626,-40.359
25819,10.105,1.823,-2.002,-126.924,8.916,-29.573
25868,9.832,2.46,-1.851,-106.076,22.168,-14.168
25918,9.633,2.876,-1.37,-89.695,32.519,4.473
25968,9.348,2.893,-0.735,-78.824,39.634,23.733
26018,9.171,2.565,-0.132,-73.931,43.405,42.26
26068,8.96,1.993,0.41,-74.893,44.206,58.595
26119,8.799,1.047,0.97,-80.16,42.313,72.069
26168,8.732,-0.163,1.461,-88.618,37.947,81.695
26218,8.78,-1.705,1.715,-98.328,30.832,86.389
26268,8.917,-3.387,1.849,-105.969,21.481,83.351
26318,9.175,-4.965,1.688,-108.389,12.214,71.626
26369,9.23,-6.292,1.174,-103.466,4.878,48.374
26419,9.865,-6.823,0.604,-92.634,2.916,20.756
26468,9.781,-6.625,0.048,-77.13,5.55,-6.779
26518,9.903,-5.952,0.026,-59.16,11.496,-31.115
26568,9.827,-4.977,0.175,-41.282,17.458,-49.87
26618,9.863,-4.004,0.297,-26.153,21.832,-62.863
26669,9.733,-2.908,0.833,-15.641,23.885,-71.023
26719,9.575,-1.892,1.207,-11.153,23.481,-74.061
26769,9.549,-0.8,1.662,-12.931,21.298,-72.443
26819,9.463,0.086,1.952,-21.252,17.985,-66.733
26869,9.35,0.802,2.206,-35.504,14.695,-58.328
26919,9.242,1.396,2.448,-54.611,11.145,-47.832
26970,9.221,1.717,2.565,-77.649,8.13,-36.611
27019,9.228,1.875,2.572,-102.725,5.107,-25.321
27069,9.3,1.796,2.757,-130.519,2.206,-14.145
27119,9.369,1.564,2.675,-157.481,-0.885,-4.084
27169,9.46,1.291,2.395,-183.328,-4.802,4.0
27219,9.659,0.726,2.093,-205.496,-8.901,10.023
27270,9.844,0.309,1.636,-221.893,-12.344,13.023
27319,10.208,-0.113,1.044,-231.84,-14.214,14.45
27369,10.378,-0.326,0.386,-235.939,-13.389,14.565
27419,10.667,-0.314,-0.046,-235.282,-9.634,15.763
27469,10.861,-0.426,-0.287,-231.153,-5.45,18.344
27522,10.945,-0.68,-0.328,-223.931,-1.122,22.107
27575,11.039,-1.035,-0.412,-213.656,1.771,25.458
27626,10.864,-1.447,-0.369,-200.42,3.153,26.824
27678,10.713,-1.928,-0.601,-183.015,4.55,25.008
27730,10.572,-2.347,-0.944,-161.779,7.206,20.267
27783,10.181,-2.819,-1.286,-135.855,12.366,13.74
27835,9.846,-2.967,-1.53,-106.16,20.687,5.534
27886,9.479,-3.018,-1.71,-75.183,30.611,-1.817
27937,9.041,-2.831,-1.485,-44.397,40.359,-7.718
27988,8.763,-2.544,-1.066,-16.198,48.687,-11.916
28041,8.469,-2.134,-0.491,6.214,55.092,-14.634
28090,8.323,-1.708,0.263,18.832,59.145,-15.702
28140,8.356,-1.178,0.96,20.641,61.412,-15.023
28190,8.5,-0.675,1.973,9.405,61.947,-12.206
28240,8.696,-0.249,3.001,-14.802,60.351,-6.969
28291,8.943,-0.055,3.992,-50.504,55.176,0.511
28340,9.343,-0.11,5.008,-93.427,44.603,9.534
28390,9.688,-0.635,5.468,-139.008,27.405,17.519
28440,10.059,-1.602,5.415,-181.756,5.153,20.466
28490,10.251,-2.522,4.824,-215.527,-17.42,15.13
28541,10.478,-3.36,3.482,-236.74,-35.305,0.664
28594,10.648,-3.741,1.763,-241.595,-43.641,-19.74
28648,10.708,-3.418,0.156,-230.229,-39.573,-41.511
28701,10.552,-2.558,-1.262,-204.779,-24.618,-57.313
28756,10.49,-1.442,-2.11,-170.664,-3.405,-63.679
28811,10.306,-0.163,-2.575,-133.901,19.603,-60.496
28865,9.925,0.924,-2.491,-100.55,41.076,-49.489
28917,9.59,1.734,-2.048,-74.076,59.038,-34.427
28967,9.192,2.211,-1.432,-55.611,72.45,-17.985
29019,8.821,2.352,-0.426,-47.74,82.137,-1.748
29069,8.514,2.235,0.532,-51.702,88.481,13.771
29119,8.246,1.904,1.669,-69.191,91.237,28.695
29169,8.09,1.281,2.996,-100.847,89.611,43.802
29219,7.99,0.16,4.263,-146.183,81.511,58.397
29270,8.308,-1.696,4.972,-219.214,71.183,67.168
29320,8.442,-4.469,5.588,-250.137,44.214,61.252
29369,8.368,-6.634,4.74,-220.328,8.382,49.924
29419,8.677,-7.916,3.396,-186.573,-7.901,19.061
29469,8.936,-8.098,2.132,-135.58,-14.198,-14.321
29522,9.077,-7.274,1.384,-79.611,-13.389,-45.985
29575,9.175,-6.179,0.994,-42.405,-8.702,-71.626
29625,9.115,-4.948,0.989,-22.985,-2.542,-90.847
29676,9.094,-3.605,1.176,-1.87,-1.069,-101.977
29727,9.242,-2.16,1.315,10.244,-1.817,-106.534
29778,9.228,-0.616,1.545,12.832,-3.901,-104.328
29829,9.276,0.551,1.545,6.405,-6.504,-97.069
29878,9.388,1.609,1.799,-7.298,-8.45,-87.046
29928,9.403,2.467,1.863,-28.122,-9.702,-73.939
29978,9.398,3.109,1.935,-54.084,-10.405,-59.092
30028,9.432,3.549,1.966,-84.71,-10.389,-43.557
30078,9.329,3.818,1.928,-121.305,-8.313,-32.336
30129,9.415,3.595,2.072,-158.267,-4.252,-27.916
30180,6.68,2.551,0.029,-231.672,-19.489,-15.786
30231,9.764,3.197,2.517,-250.137,-26.145,-9.076
30282,9.465,2.292,2.56,-226.977,-23.824,1.198
30332,9.578,1.983,2.388,-223.031,-27.015,-0.298
30460,10.081,1.581,1.875,-206.58,-27.145,-2.275
30510,10.311,1.423,1.772,-197.886,-25.061,-1.092
30559,10.418,1.116,1.758,-187.55,-23.374,0.267
30609,10.497,0.651,1.796,-175.13,-22.519,1.183
30659,10.54,0.153,1.765,-161.603,-22.573,0.473
30709,10.493,-0.357,1.746,-147.588,-22.977,-2.992
30759,10.43,-0.833,1.463,-133.0,-23.45,-9.344
30810,10.296,-1.32,1.336,-121.748,-22.725,-19.031
30859,10.121,-1.578,1.013,-112.084,-20.244,-30.985
30912,9.812,-1.564,0.651,-105.198,-15.038,-45.275
30965,9.566,-1.176,0.424,-103.298,-7.092,-58.763
31017,9.317,-0.438,0.316,-106.847,2.878,-69.55
31069,9.044,0.398,0.467,-115.214,14.145,-75.931
31119,8.847,1.511,0.783,-127.084,25.885,-77.198
31170,8.766,2.606,1.703,-139.832,36.267,-72.458
31221,8.73,3.588,2.843,-148.977,42.878,-62.198
31272,8.771,4.184,4.409,-149.718,42.16,-45.992
31324,8.804,4.34,5.71,-135.779,33.298,-26.985
31374,8.936,4.05,7.077,-119.947,12.595,-10.366
31425,8.943,3.396,7.518,-93.771,-13.435,2.58
31475,9.046,2.793,7.367,-60.55,-39.405,11.939
31525,8.909,2.354,6.783,-35.916,-64.527,17.42
31576,8.823,2.043,5.75,-12.824,-84.748,22.603
31625,8.792,1.715,4.402,5.634,-98.832,28.405
31675,8.893,1.408,3.02,17.13,-105.191,34.374
31725,8.933,0.999,1.456,20.489,-105.55,39.099
31775,8.979,0.479,0.16,15.679,-98.634,41.863
31825,9.039,-0.002,-1.095,3.916,-90.183,41.748
31876,9.111,-0.443,-2.201,-13.656,-76.542,38.695
31925,9.187,-0.836,-3.135,-35.779,-60.275,32.573
31975,9.297,-1.035,-3.564,-56.344,-48.893,25.718
32026,9.161,-0.939,-4.026,-78.901,-45.565,19.725
32078,15.759,1.133,-2.769,-170.71,-10.756,29.786
32132,8.414,-0.723,-4.953,-165.924,17.282,24.122
32183,9.115,0.479,-4.134,-122.092,26.878,19.435
32234,9.091,0.611,-3.456,-102.122,36.244,25.153
32285,9.166,0.422,-2.603,-83.786,41.855,31.298
32335,9.314,0.086,-1.681,-70.336,43.763,36.221
32386,9.551,-0.465,-0.917,-63.031,42.618,38.725
32436,9.848,-1.061,-0.352,-62.046,38.328,38.008
32487,10.112,-1.631,0.17,-66.863,32.267,33.573
32538,10.337,-2.021,0.46,-75.466,24.992,26.13
32589,10.579,-2.22,0.311,-85.649,18.244,16.435
32640,10.701,-2.017,0.211,-95.527,13.649,6.168
32690,10.727,-1.739,0.0,-103.527,11.42,-2.359
32742,10.718,-1.209,-0.189,-108.977,11.908,-8.359
32795,10.6,-0.489,-0.271,-110.817,13.458,-10.099
32848,10.397,0.105,-0.139,-108.794,14.931,-7.534
32901,10.179,0.625,0.055,-103.076,15.26,-1.641
32952,9.958,0.889,0.228,-95.13,13.733,6.542
33002,9.767,1.123,0.551,-85.389,10.863,15.244
33052,9.479,1.083,0.63,-76.122,6.267,23.71
33102,9.259,0.728,0.716,-68.771,0.725,31.252
33153,9.118,0.263,0.788,-65.153,-5.969,36.863
33203,9.053,-0.383,0.697,-67.053,-13.427,39.885
33252,8.948,-1.14,0.352,-75.496,-20.389,39.679
33302,8.981,-1.847,-0.235,-90.313,-26.038,35.817
33352,9.218,-2.503,-1.154,-109.252,-28.702,28.397
33402,9.415,-2.809,-2.175,-130.557,-26.015,17.71
33454,9.721,-2.769,-3.164,-148.328,-16.45,5.626
33505,9.968,-2.251,-3.76,-160.786,0.145,-5.191
33556,10.174,-1.621,-3.973,-165.649,20.069,-11.206
33610,10.464,-0.807,-3.451,-162.603,40.122,-11.641
33665,10.483,-0.17,-2.522,-152.641,56.061,-7.244
33718,10.483,0.228,-1.502,-138.824,65.282,0.695
33768,10.488,0.546,-0.455,-124.786,68.603,9.595
33819,10.303,0.501,0.517,-112.87,66.26,18.198
33870,10.124,0.285,1.6,-105.137,58.809,26.282
33922,9.954,-0.065,2.383,-102.832,46.962,32.298
33972,9.729,-0.462,3.106,-107.725,31.763,35.931
34023,9.408,-1.032,3.439,-119.924,13.687,36.672
34074,9.168,-1.677,3.523,-139.481,-5.382,34.084
34125,8.957,-2.218,3.003,-166.847,-23.527,27.595
34177,8.79,-2.544,2.144,-199.557,-38.511,16.534
34229,8.632,-2.745,0.831,-233.443,-47.695,1.656
34280,8.682,-2.218,-0.496,-250.137,-48.901,-14.504
34334,8.725,-1.14,-1.796,-250.137,-41.924,-29.595
34388,9.0,0.45,-2.361,-250.137,-29.076,-37.947
34441,9.269,2.005,-2.373,-243.802,-15.336,-36.954
34494,9.673,3.351,-1.897,-204.26,-4.435,-25.496
34546,10.162,4.088,-1.3,-158.534,0.214,-7.679
34597,10.373,3.93,-0.73,-101.886,-1.298,7.893
34649,10.354,3.691,-0.539,-48.885,-1.954,21.45
34699,10.363,3.284,-0.539,-33.611,-3.397,40.26
34750,10.562,2.378,-0.901,-36.939,-6.405,55.374
34801,10.493,1.648,-1.102,-29.176,-4.183,61.305
34852,10.277,0.965,-1.449,-27.053,0.519,64.183
34902,10.172,0.295,-1.732,-31.221,6.725,64.435
34952,9.93,-0.316,-1.976,-41.481,13.824,62.191
35003,9.664,-0.877,-1.988,-57.504,21.527,58.244
35054,9.293,-1.245,-2.029,-78.427,28.412,53.84
35104,9.149,-1.504,-1.815,-103.069,33.588,50.061
35156,8.83,-1.621,-1.54,-131.542,36.504,48.107
35209,8.718,-1.77,-1.217,-160.763,35.733,47.504
35261,8.526,-2.038,-0.788,-192.458,31.076,47.84
35312,8.629,-2.354,-0.81,-231.382,22.595,48.519
35364,8.56,-2.682,-0.891,-250.137,11.733,51.229
35417,9.202,-2.996,-1.918,-250.137,9.901,54.229
35468,9.072,-3.475,-2.611,-250.137,10.542,36.374
35520,9.76,-2.567,-3.389,-250.137,9.0,16.855
35570,9.851,-1.744,-3.873,-250.137,18.84,9.527
35621,10.042,-0.884,-3.775,-236.496,32.412,7.183
35674,10.2,-0.091,-3.25,-199.0,45.977,10.305
35727,10.426,0.436,-2.443,-162.107,56.13,18.16
35779,10.461,0.75,-1.418,-131.191,61.412,27.878
35830,10.485,0.905,-0.366,-107.893,61.802,37.618
35883,10.311,0.68,0.62,-93.496,58.015,47.092
35933,10.107,0.371,1.468,-89.466,50.336,55.191
35983,10.023,0.007,2.17,-94.786,39.008,62.58
36032,9.764,-0.515,2.726,-109.382,24.145,68.351
36083,9.436,-1.257,2.874,-132.626,5.809,71.962
36133,9.106,-2.088,2.666,-164.137,-14.122,71.176
36186,8.744,-3.073,1.923,-200.153,-34.611,63.519
36237,8.426,-3.791,0.489,-233.298,-51.504,47.817
36289,8.277,-4.019,-1.372,-250.137,-61.0,26.221
36342,8.232,-3.36,-3.387,-250.137,-59.656,2.573
36395,8.222,-2.012,-4.936,-232.756,-47.679,-15.687
36449,8.289,-0.378,-5.885,-173.115,-29.763,-26.198
36502,8.644,1.106,-6.294,-92.656,-11.298,-29.58
36554,9.032,2.512,-6.213,-58.885,18.084,-19.969
36605,8.689,3.14,-5.544,-96.145,34.763,7.26
36656,8.699,3.013,-4.838,-96.038,51.786,24.061
36705,8.79,2.833,-3.861,-91.344,63.351,40.298
36755,8.842,2.266,-2.965,-83.855,70.588,54.863
36805,8.881,1.566,-2.041,-76.863,73.695,65.069
36855,8.989,0.623,-1.221,-72.359,73.527,70.687
36905,9.103,-0.235,-0.608,-72.115,70.893,71.878
36956,9.252,-1.126,-0.077,-76.863,66.382,69.405
37006,9.297,-1.878,0.271,-87.061,60.71,63.954
37056,9.355,-2.539,0.472,-102.985,54.939,56.191
37106,9.499,-3.137,0.56,-124.405,49.008,47.237
37157,9.561,-3.48,0.556,-150.954,43.771,37.725
37209,9.642,-3.734,0.479,-182.71,39.153,28.511
37260,9.659,-3.813,0.438,-220.046,35.206,21.916
37311,9.856,-3.854,0.271,-250.137,31.794,23.893
37361,10.308,-3.957,-0.45,-250.137,43.511,21.603
37414,9.606,-4.153,-0.872,-250.137,49.412,10.931
37467,9.827,-3.537,-1.13,-250.137,42.473,4.855
37518,9.911,-3.367,-1.245,-250.137,44.855,4.092
37568,9.947,-3.207,-1.411,-250.137,47.0,2.87
37619,10.076,-2.771,-1.518,-250.137,50.534,1.405
37671,10.114,-2.321,-1.454,-246.611,55.16,1.076
37724,10.174,-1.667,-1.272,-227.16,59.985,3.756
37775,10.002,-1.142,-0.714,-211.168,63.641,9.046
37827,10.004,-0.733,-0.139,-200.779,64.634,17.084
37880,9.836,-0.608,0.592,-197.901,61.885,26.771
37932,9.726,-0.685,1.25,-203.023,54.878,36.626
37983,9.513,-0.999,1.95,-216.702,43.832,45.405
38033,9.324,-1.562,2.165,-237.031,28.443,50.71
38084,9.183,-2.445,2.112,-250.137,10.382,50.832
38135,9.032,-3.224,1.473,-250.137,-7.092,43.641
38187,8.857,-3.748,0.41,-250.137,-20.634,29.794
38238,8.763,-3.803,-1.02,-250.137,-26.756,11.351
38291,8.802,-3.094,-2.4,-250.137,-23.794,-6.58
38344,8.909,-1.815,-3.336,-249.74,-14.29,-18.45
38398,9.022,-0.443,-3.698,-189.863,-3.489,-22.817
38452,9.034,0.651,-3.77,-103.397,0.748,-26.656
38502,9.515,1.538,-3.873,-40.16,11.687,-27.45
38553,9.345,2.723,-3.308,-46.267,31.076,-8.817
38603,9.776,2.8,-2.831,-85.45,33.847,13.336
38653,9.975,2.869,-2.112,-84.992,40.122,27.855
38704,10.15,2.587,-1.401,-81.809,42.603,42.336
38754,10.131,1.978,-0.68,-77.695,40.878,54.305
38805,10.196,1.142,-0.259,-74.275,37.26,61.679
38856,10.236,0.292,-0.072,-73.42,33.061,64.107
38906,10.117,-0.587,-0.024,-76.695,29.191,62.351
38959,10.064,-1.243,-0.012,-84.725,25.481,57.0
39011,9.954,-1.95,-0.141,-98.0,22.542,49.137
39062,9.865,-2.395,-0.307,-116.26,21.122,39.565
39114,9.547,-2.649,-0.536,-139.771,21.252,29.687
39165,9.336,-2.723,-0.814,-167.443,22.221,20.725
39218,9.25,-2.555,-0.98,-197.748,24.061,13.435
39270,9.022,-2.376,-1.078,-228.954,26.328,8.786
39321,8.95,-2.017,-1.166,-250.137,28.939,6.588
39371,8.924,-1.583,-1.073,-250.137,30.809,7.969
39422,9.051,-1.389,-0.824,-250.137,30.412,11.321
39475,9.175,-1.43,-0.671,-250.137,27.267,14.229
39527,9.47,-1.485,-0.659,-250.137,22.542,14.588
39579,9.923,-1.576,-0.987,-250.137,19.221,11.13
39630,10.129,-1.217,-1.365,-250.137,20.725,6.863
39683,10.574,-0.522,-1.463,-250.137,26.702,5.351
39735,10.689,0.144,-1.253,-250.137,33.679,10.069
39787,10.881,0.532,-0.376,-250.137,36.435,20.458
39838,10.933,0.352,0.501,-250.137,31.534,32.26
39889,11.0,-0.117,1.133,-250.137,19.076,39.427
39942,10.775,-1.006,1.372,-250.137,2.87,38.992
39993,10.634,-1.777,1.035,-250.137,-11.878,29.893
40046,10.373,-2.304,0.22,-250.137,-20.954,12.908
40098,10.112,-2.342,-0.867,-250.137,-19.634,-6.924
40153,9.683,-1.612,-1.806,-250.137,-6.802,-23.885
40206,9.274,-0.405,-2.225,-250.137,13.565,-30.275
40259,9.0,0.838,-1.753,-250.137,34.565,-24.198
40311,8.672,1.633,-0.678,-250.137,48.641,-8.382
40361,8.569,1.837,0.776,-250.137,51.573,11.42
40412,8.529,1.09,2.156,-250.137,43.817,28.0
40462,8.521,-0.177,3.08,-250.137,28.389,37.038
40513,8.835,-1.65,3.286,-250.137,9.725,36.061
40562,9.221,-3.006,2.455,-250.137,-5.611,26.397
40613,9.377,-3.942,1.039,-250.137,-13.366,8.695
40665,9.793,-3.83,-0.529,-250.137,-9.328,-11.122
40718,10.138,-2.776,-1.851,-250.137,7.061,-22.916
40770,10.701,-1.49,-2.285,-250.137,36.153,-21.855
40824,11.048,-0.374,-1.686,-250.137,57.061,-10.305
40879,10.739,0.163,-0.91,-250.137,63.695,12.588
40931,10.845,-0.029,-0.115,-250.137,57.519,33.802
40984,10.725,-0.529,0.395,-250.137,41.504,48.29
41035,10.584,-1.174,0.189,-250.137,22.817,52.061
41088,10.464,-1.59,-0.472,-250.137,7.344,47.435
41140,10.222,-1.499,-1.32,-250.137,-1.168,38.908
41193,9.925,-0.879,-2.108,-250.137,-3.595,31.351
41245,9.542,-0.153,-2.424,-250.137,-3.153,27.305
41296,9.235,0.685,-2.215,-250.137,-3.588,26.565
41348,9.012,1.3,-1.772,-250.137,-6.771,27.13
41399,8.797,1.586,-1.135,-250.137,-13.321,26.573
41451,8.648,1.672,-0.774,-250.137,-22.122,22.954
41502,8.656,1.665,-0.582,-250.137,-29.725,15.29
41554,8.938,1.863,-0.747,-250.137,-33.313,5.771
41606,9.118,2.498,-0.987,-250.137,-32.397,-0.534
41658,9.367,3.305,-0.975,-250.137,-27.901,-0.069
41710,9.695,3.696,-0.711,-213.359,-23.443,7.565
41760,10.069,3.791,-0.304,-173.87,-20.878,19.702
41814,10.176,3.384,-0.019,-136.893,-20.458,33.847
41867,10.342,2.632,0.148,-105.748,-21.595,46.588
41919,10.509,1.942,0.275,-82.221,-23.344,55.702
41970,10.531,1.023,0.362,-66.405,-25.542,60.573
42020,10.469,0.16,0.321,-58.611,-27.931,61.481
42072,10.368,-0.639,0.182,-59.168,-30.817,58.817
42124,10.157,-1.375,0.134,-68.092,-34.802,52.847
42176,9.999,-1.993,-0.235,-84.313,-39.427,43.397
42228,9.628,-2.474,-0.838,-107.214,-42.947,30.901
42281,9.444,-2.637,-1.621,-132.267,-43.878,15.565
42335,9.046,-2.373,-2.527,-159.069,-39.389,-0.496
42388,8.864,-1.526,-3.334,-180.809,-30.092,-13.786
42442,8.72,-0.352,-3.542,-184.87,-17.244,-23.74
42496,8.701,0.956,-3.401,-175.527,-5.015,-26.214
42548,8.62,2.146,-2.965,-150.489,4.481,-23.046
42599,8.79,2.989,-2.304,-108.557,9.969,-17.893
42650,8.967,3.643,-1.712,-53.382,13.252,-12.817
42700,9.336,4.134,-1.231,-23.053,16.542,-0.298
42750,9.266,4.337,-1.054,-26.107,14.008,18.046
42801,9.367,3.782,-0.898,-22.168,12.992,33.023
42851,9.556,3.166,-0.869,-14.443,13.137,44.863
42901,9.714,2.515,-0.886,-10.168,13.679,54.198
42950,9.767,1.746,-1.006,-9.802,15.626,59.641
43000,9.865,0.908,-1.205,-14.084,19.366,61.473
43051,9.961,0.144,-1.248,-22.893,23.985,59.626
43101,9.961,-0.568,-1.315,-35.397,29.427,54.878
43150,10.006,-1.157,-1.305,-50.443,35.061,48.282
43202,9.932,-1.595,-1.272,-68.947,41.176,40.473
43253,9.824,-1.801,-1.037,-88.282,47.183,32.931
43304,9.767,-1.94,-0.668,-107.137,51.702,27.496
43356,9.635,-2.081,-0.029,-125.443,53.321,23.374
43408,9.489,-2.309,0.644,-140.908,51.855,19.74
43459,9.513,-2.56,1.114,-154.046,47.718,15.26
43510,9.554,-2.953,1.6,-165.573,41.985,9.588
43559,9.556,-3.209,1.997,-176.672,35.092,2.74
43610,9.714,-3.566,2.27,-187.832,26.626,-6.282
43661,9.875,-3.727,2.333,-200.817,18.168,-18.664
43713,9.975,-3.827,2.041,-216.038,11.702,-33.664
43764,10.016,-3.43,1.461,-232.427,10.321,-49.359
43817,10.16,-2.67,1.03,-248.206,14.748,-63.16
43871,10.002,-1.712,0.697,-250.137,24.26,-71.038
43924,9.93,-0.553,0.843,-250.137,36.298,-71.916
43976,9.884,0.419,1.305,-250.137,47.153,-65.58
44026,9.82,1.178,2.182,-240.664,53.13,-53.756
44078,9.757,1.605,3.2,-212.58,51.534,-39.84
44129,9.743,1.669,4.151,-176.695,42.977,-26.771
44180,9.578,1.463,5.145,-134.527,27.878,-17.015
44230,9.535,1.181,5.494,-109.153,17.71,-14.771
44281,9.326,0.922,5.774,-74.969,17.206,-16.954
44332,8.977,1.066,5.537,43.42,-19.504,6.435
44382,8.634,1.145,4.974,1.397,-38.718,-0.504
44431,8.696,1.195,4.373,-21.29,-46.511,-0.229
44481,8.727,1.068,3.719,-33.542,-50.45,1.58
44531,8.763,0.826,2.905,-44.427,-52.183,2.366
44581,9.02,0.659,2.024,-54.481,-51.389,2.008
44632,9.372,0.568,1.178,-63.137,-47.427,0.809
44681,9.662,0.443,0.187,-71.573,-39.573,-0.069
44731,10.102,0.477,-0.455,-80.13,-27.664,-1.092
44781,10.411,0.565,-0.781,-89.344,-13.031,-0.565
44831,10.749,0.685,-0.683,-97.977,2.458,2.191
44881,10.914,0.649,-0.225,-105.687,15.443,6.954
44932,11.034,0.429,0.316,-111.336,24.649,12.374
44981,11.087,0.153,0.932,-113.649,29.092,17.282
45031,10.964,-0.441,1.633,-112.153,29.641,20.076
45081,10.785,-0.98,2.22,-105.733,26.366,19.45
45132,10.593,-1.605,2.536,-93.786,20.786,15.221
45184,10.358,-2.141,2.896,-76.107,14.26,7.756
45234,10.052,-2.376,2.975,-54.397,7.321,-1.893
45283,9.568,-2.51,3.121,-29.931,0.947,-11.733
45333,9.338,-2.294,2.869,-4.885,-4.168,-20.71
45383,8.957,-1.868,2.74,18.229,-7.87,-27.664
45433,8.787,-1.418,2.445,36.702,-9.916,-32.557
45484,8.622,-0.886,2.129,48.695,-10.275,-35.74
45534,8.641,-0.352,1.789,52.603,-9.427,-37.573
45584,8.761,0.369,1.554,47.969,-7.565,-38.099
45633,9.036,1.188,1.231,33.695,-4.313,-36.802
45683,9.343,1.957,0.984,10.206,0.58,-33.26
45733,9.621,2.575,0.841,-19.145,6.786,-25.893
45784,9.949,2.987,0.984,-50.87,13.649,-14.702
45833,10.284,2.946,1.315,-81.466,19.893,-1.061
45883,10.555,2.603,1.938,-108.565,22.817,13.847
45933,10.655,1.94,2.381,-128.802,20.458,27.412
45983,10.62,1.049,2.975,-141.206,12.763,37.046
46033,10.643,0.038,3.305,-143.405,2.305,40.802
46084,10.564,-1.011,3.281,-135.649,-9.466,38.542
46133,10.529,-1.995,3.07,-118.382,-20.237,31.122
46186,10.344,-2.802,2.646,-91.397,-28.87,18.321
46238,10.162,-3.396,2.151,-58.55,-33.656,2.702
46288,9.829,-3.585,1.708,-23.267,-35.023,-13.198
46341,9.501,-3.411,1.229,12.733,-34.458,-27.42
46392,9.223,-2.881,0.843,45.244,-33.031,-37.786
46443,8.89,-2.23,0.58,71.893,-31.626,-44.45
46493,8.787,-1.454,0.402,90.534,-30.786,-47.656
46544,8.775,-0.659,-0.038,99.252,-29.634,-48.405
46597,8.905,0.089,-0.553,97.733,-27.13,-46.756
46648,9.051,0.915,-1.075,85.664,-21.641,-43.351
46699,9.312,1.667,-1.526,64.267,-12.603,-37.359
46749,9.635,2.292,-1.878,36.901,0.252,-28.588
46799,10.026,2.635,-1.861,8.115,15.221,-16.573
46850,10.191,2.666,-1.425,-21.008,30.45,-2.954
46900,10.368,2.385,-0.728,-47.618,43.076,11.229
46950,10.471,1.851,-0.074,-70.947,51.237,23.947
47001,10.526,1.229,0.714,-88.641,54.427,34.939
47051,10.457,0.424,1.518,-99.137,52.695,42.13
47101,10.418,-0.493,2.129,-100.985,47.137,44.947
47153,10.373,-1.427,2.546,-93.267,39.557,42.878
47204,10.186,-2.208,2.795,-75.84,32.672,36.015
47255,9.98,-2.972,2.881,-49.84,27.168,24.916
47305,9.767,-3.355,3.018,-17.634,22.962,11.901
47355,9.422,-3.418,3.243,18.511,19.023,-1.924
47406,9.125,-3.181,3.49,55.122,14.328,-14.679
47455,8.852,-2.587,3.779,87.405,8.985,-25.008
47505,8.754,-1.712,3.868,113.076,2.656,-32.481
47555,8.682,-0.666,3.734,127.397,-3.489,-36.611
47605,8.66,0.417,3.597,128.511,-9.099,-36.901
47655,8.818,1.451,3.128,115.611,-13.053,-34.267
47706,8.996,2.385,2.8,89.924,-15.13,-28.382
47755,9.233,3.137,2.299,56.397,-15.191,-19.771
47805,9.554,3.533,1.942,17.702,-12.099,-7.313
47855,9.796,3.652,1.727,-20.679,-8.099,7.458
47905,10.052,3.346,1.928,-55.557,-4.595,22.618
47955,10.1,2.654,2.208,-83.443,-3.748,35.748
48006,10.186,1.672,2.498,-102.511,-6.794,45.221
48055,10.267,0.649,2.62,-111.618,-13.214,49.557
48105,10.27,-0.474,2.632,-110.634,-21.443,48.405
48156,10.294,-1.578,2.548,-99.473,-30.275,41.954
48208,10.133,-2.373,2.263,-78.969,-36.84,30.618
48261,10.011,-2.97,1.775,-51.786,-40.611,16.618
48313,9.958,-3.284,1.183,-20.527,-41.198,1.771
48363,9.693,-3.243,0.754,10.802,-39.366,-11.099
48413,9.659,-2.967,0.326,41.588,-36.191,-22.366
48464,9.448,-2.551,-0.012,68.374,-31.87,-30.679
48517,9.29,-1.93,-0.438,90.275,-27.191,-36.29
48569,9.35,-1.195,-0.687,104.466,-22.626,-39.511
48621,9.321,-0.56,-0.917,110.962,-17.344,-39.847
48674,9.559,0.117,-1.403,109.366,-10.344,-37.916
48727,9.705,0.666,-1.748,101.679,-1.069,-34.237
48778,9.867,0.948,-1.916,89.695,11.031,-29.496
48828,10.15,1.039,-1.832,76.58,25.107,-24.55
48878,10.198,1.15,-1.463,62.748,40.137,-19.298
48929,10.291,1.164,-0.81,49.664,53.13,-14.443
48980,10.265,1.162,0.05,37.046,62.939,-9.847
49030,10.318,0.994,1.044,26.435,67.863,-5.985
49079,10.212,0.735,2.0,16.771,68.282,-2.779
49129,10.071,0.644,3.027,8.756,64.122,-0.191
49179,9.93,0.46,3.846,2.313,56.092,0.794
49229,9.776,0.331,4.567,-2.504,45.137,0.901
49280,9.53,0.194,5.063,-6.053,31.725,0.458
49330,9.285,0.271,5.494,-8.099,17.366,-0.061
49379,9.192,0.309,5.516,-9.374,3.389,0.16
49429,8.945,0.307,5.355,-10.489,-9.565,0.74
49479,8.816,0.273,4.946,-11.664,-19.122,1.031
49529,8.708,0.247,4.352,-13.756,-25.427,0.496
49580,8.806,0.275,3.763,-16.794,-28.389,-0.389
49630,8.893,0.299,3.085,-21.511,-28.618,-1.153
49679,9.065,0.46,2.563,-27.748,-27.168,-1.679
49729,9.324,0.711,2.06,-35.618,-24.26,-1.092
49779,9.645,0.745,1.662,-44.221,-20.015,1.397
49829,9.994,0.802,1.341,-52.313,-15.122,4.282
49880,10.289,0.673,1.344,-58.389,-9.191,8.626
49929,10.593,0.46,1.272,-61.321,-3.947,12.878
49979,10.758,0.084,1.552,-60.107,0.603,16.351
50029,10.852,-0.414,1.909,-54.824,2.679,18.305
50079,10.905,-0.965,2.235,-45.023,2.336,17.145
50129,10.852,-1.442,2.496,-31.252,-0.618,13.092
50180,10.675,-1.957,2.608,-13.611,-5.435,6.076
50229,10.562,-2.263,2.812,6.153,-11.771,-2.901
50279,10.215,-2.309,2.819,27.511,-18.977,-12.771
50329,9.939,-2.208,2.793,48.359,-26.206,-21.634
50379,9.611,-1.847,2.407,66.733,-32.794,-28.435
50429,9.331,-1.365,2.122,80.809,-38.046,-32.802
50480,9.106,-0.75,1.487,88.374,-41.137,-34.244
50529,8.998,-0.256,0.826,88.71,-41.611,-33.466
50579,8.991,0.307,-0.038,81.763,-38.878,-31.115
50629,9.082,0.812,-0.798,68.695,-32.168,-27.878
50679,9.242,1.099,-1.588,50.267,-22.13,-24.145
50729,9.458,1.499,-2.086,27.786,-8.916,-20.198
50780,9.729,1.751,-2.438,2.74,7.176,-14.947
50829,9.913,1.957,-2.328,-22.855,25.008,-7.847
50879,10.109,2.045,-1.935,-48.55,42.847,1.527
50929,10.164,1.938,-1.135,-72.496,57.908,12.427
50979,10.234,1.677,0.024,-93.382,67.573,24.45
51030,10.196,1.174,1.178,-109.031,70.664,35.87
51080,10.22,0.342,2.23,-117.313,66.733,44.969
51129,10.133,-0.529,3.195,-116.137,57.534,49.359
51179,9.997,-1.578,3.736,-104.366,45.092,48.496
51229,9.958,-2.51,4.222,-81.626,30.954,42.656
51279,9.717,-3.269,4.364,-49.603,17.099,32.053
51330,9.477,-3.748,4.594,-9.641,4.252,18.542
51380,9.218,-3.83,4.594,34.244,-8.42,4.366
51430,8.996,-3.657,4.464,78.137,-19.687,-8.13
51480,8.79,-2.965,4.273,118.229,-29.908,-16.489
51530,8.644,-2.187,3.918,150.191,-38.511,-19.748
51580,8.646,-1.265,3.372,171.901,-44.473,-18.374
51631,8.66,-0.553,2.618,183.038,-47.466,-13.786
51680,8.814,-0.002,1.835,184.252,-46.863,-7.634
51730,9.156,0.199,1.008,179.069,-42.351,-0.924
51780,9.453,0.319,0.196,171.023,-34.168,5.282
51830,9.772,0.05,-0.192,163.351,-22.389,9.122
51880,10.234,-0.28,-0.407,157.26,-8.427,9.534
51931,10.471,-0.388,-0.362,152.534,5.053,5.664
51980,10.641,-0.462,0.089,148.649,15.412,-0.313
52030,10.835,-0.156,0.596,142.901,22.115,-7.26
52080,10.936,0.333,1.092,135.344,24.84,-12.145
52130,10.933,0.941,1.437,124.405,24.969,-13.191
52180,10.878,1.619,1.641,109.802,24.008,-9.565
52231,10.806,2.17,1.724,91.374,23.466,-1.763
52280,10.624,2.522,1.768,70.626,24.137,9.061
52330,10.327,2.606,1.904,47.229,25.214,21.336
52380,9.985,2.4,2.036,24.099,27.015,33.389
52430,9.623,1.93,2.266,3.809,27.893,43.351
52481,9.209,1.205,2.429,-10.168,28.969,51.092
52531,8.943,0.354,2.651,-14.878,29.305,55.748
52580,8.644,-0.738,2.965,-8.84,29.45,57.076
52630,8.644,-1.727,3.284,9.695,29.389,55.015
52680,8.608,-2.635,3.777,40.046,28.443,48.931
52730,8.689,-3.418,4.258,79.389,25.901,38.252
52781,8.828,-3.755,5.01,124.634,20.443,24.687
52831,8.977,-3.456,5.645,171.382,9.794,11.183
52881,9.199,-2.635,6.033,196.542,-6.695,-1.435
52931,9.53,-1.468,6.055,182.313,-26.733,-13.588
52981,9.446,-0.175,5.669,169.344,-45.908,-13.137
53031,9.494,0.817,4.694,146.947,-60.885,-5.863
53082,9.487,1.566,3.585,118.947,-69.595,5.939
53131,9.719,1.842,2.419,90.214,-71.718,19.481
53181,9.717,1.768,1.229,63.427,-67.511,32.26
53231,9.793,1.612,0.228,41.275,-58.344,43.206
53281,9.791,1.238,-0.584,26.053,-46.237,52.344
53331,9.774,0.637,-1.142,18.763,-31.542,59.595
53382,9.63,0.034,-1.451,20.298,-16.084,64.763
53431,9.582,-0.85,-1.576,31.435,-0.359,67.427
53481,9.472,-1.712,-1.48,52.603,16.115,66.947
53531,9.429,-2.704,-0.75,84.046,31.908,61.969
53581,9.412,-3.528,0.105,124.305,45.84,51.45
53632,9.369,-4.17,1.547,169.069,54.992,34.878
53682,9.345,-4.095,3.399,211.649,55.084,13.115
53731,9.386,-3.255,5.101,243.496,43.351,-8.145
53781,9.482,-1.607,6.38,250.13,20.641,-22.695
53831,9.57,0.256,6.608,250.13,-6.748,-24.122
53881,9.676,1.964,6.172,226.122,-31.26,-12.542
53932,9.664,2.852,5.145,188.504,-47.992,7.802
53982,9.623,3.066,4.024,146.519,-55.427,30.527
54031,9.484,2.699,3.097,107.786,-56.328,50.573
54081,9.309,1.835,2.366,75.878,-53.084,65.863
54131,9.151,0.781,1.777,54.947,-48.298,75.382
54181,9.036,-0.376,1.401,47.389,-42.573,79.137
54232,8.914,-1.528,1.004,53.802,-36.405,78.13
54281,8.926,-2.536,0.898,73.076,-29.855,73.748
54331,8.835,-3.411,0.927,105.0,-22.611,66.565
54381,8.864,-4.04,1.14,146.886,-14.573,57.695
54431,8.857,-4.517,1.605,195.55,-7.145,46.748
54481,8.926,-4.632,2.309,246.305,-1.916,34.168
54532,9.053,-4.268,3.31,250.13,-1.733,23.863
54581,9.082,-3.499,3.978,250.13,-5.573,11.786
54631,9.281,-2.309,4.555,250.13,-13.221,6.244
54681,9.472,-1.147,4.615,250.13,-22.13,6.649
54731,9.645,-0.216,4.424,250.13,-28.832,12.031
54781,9.92,0.481,3.945,250.13,-32.198,20.29
54832,10.184,0.766,3.298,250.13,-31.847,28.534
54881,10.43,0.836,2.778,249.145,-28.603,35.13
54931,10.454,0.781,2.354,222.55,-23.901,39.832
54981,10.521,0.639,1.952,199.298,-18.634,42.496
55031,10.497,0.477,1.65,180.076,-13.504,43.71
55081,10.55,0.371,1.217,165.13,-7.435,44.42
55132,10.449,0.261,0.946,154.519,-0.26,44.45
55181,10.335,0.228,0.474,148.42,8.725,45.282
55231,10.064,0.046,0.22,146.748,20.565,46.16
55281,9.867,-0.242,0.062,149.435,34.588,45.71
55331,9.496,-0.546,0.321,156.008,49.412,43.45
55382,9.077,-0.948,0.838,164.847,63.351,37.534
55432,8.79,-1.142,1.674,173.55,74.427,27.389
55481,8.493,-1.135,2.867,177.916,80.412,14.672
55531,8.287,-0.575,4.206,173.687,79.863,1.023
55581,8.277,0.263,5.578,155.313,71.763,-9.55
55631,8.239,1.368,6.799,119.489,57.573,-14.382
55682,8.407,2.402,7.743,57.641,37.328,-15.779
55732,8.275,2.8,8.378,21.656,14.115,-5.71
55782,8.593,3.066,8.392,9.466,-12.695,10.122
55832,8.598,2.888,7.985,5.557,-37.504,25.267
55882,8.459,2.529,7.417,-5.824,-61.55,36.252
55932,8.416,1.93,6.51,-14.809,-82.16,44.084
55983,8.45,1.236,5.358,-20.382,-99.359,48.023
56032,8.454,0.572,4.009,-21.718,-109.397,48.779
56082,8.488,-0.141,2.601,-19.298,-114.71,46.313
56132,8.62,-0.742,1.229,-12.863,-114.099,42.435
56182,8.838,-1.363,-0.127,-3.321,-108.527,37.649
56232,9.027,-1.868,-1.415,9.137,-97.962,31.595
56283,9.175,-2.536,-2.668,24.519,-81.221,24.389
56332,9.204,-2.927,-3.284,42.542,-62.87,17.42
56382,9.441,-3.422,-3.616,63.641,-52.092,16.305
56432,9.101,-3.652,-3.384,87.145,-49.969,21.374
56482,7.228,-3.619,-3.003,133.0,-12.916,-25.718
56532,9.008,-4.464,-2.85,122.756,0.931,-35.565
56583,9.056,-4.167,-2.129,124.557,3.947,-48.771
56632,9.089,-3.686,-1.717,123.366,3.87,-59.382
56682,9.192,-2.908,-1.365,121.977,1.641,-67.221
56765,9.317,-1.413,-1.075,124.298,-3.847,-71.916
56814,9.642,-0.501,-1.037,130.802,-7.443,-68.878
56864,9.879,0.338,-1.188,141.893,-10.359,-60.885
56914,10.196,0.891,-1.48,156.695,-10.847,-49.191
56965,10.397,0.948,-1.672,173.221,-8.145,-36.435
57014,10.488,0.764,-1.882,188.893,-2.42,-25.321
57064,10.572,0.244,-1.633,202.916,4.947,-17.939
57114,10.437,-0.216,-1.157,213.267,11.427,-15.214
57164,10.418,-0.426,-0.486,219.634,14.618,-16.351
57216,10.358,-0.443,0.362,221.496,12.244,-18.42
57268,10.167,-0.263,1.116,220.145,4.626,-18.565
57319,9.97,0.091,1.511,216.573,-5.794,-14.534
57369,9.781,0.393,1.502,212.931,-15.969,-7.015
57419,9.671,0.613,1.298,211.069,-23.29,3.557
57469,9.448,0.426,0.939,210.977,-26.672,15.29
57520,9.338,0.081,0.635,211.817,-26.046,26.107
57569,9.156,-0.563,0.41,211.649,-22.466,34.595
57619,9.147,-1.353,0.352,206.779,-17.198,40.351
57669,9.194,-2.302,0.642,194.626,-11.824,41.916
57720,9.365,-3.212,1.116,172.351,-7.771,39.053
57771,9.508,-4.115,1.715,141.206,-7.084,31.084
57821,9.721,-4.649,2.292,99.55,-10.321,19.649
57870,10.023,-4.869,2.46,50.023,-14.29,5.779
57920,9.985,-4.804,2.474,14.908,-22.008,-11.672
57971,10.174,-4.589,2.223,1.718,-32.122,-29.687
58022,10.208,-3.976,1.696,0.473,-42.145,-45.412
58073,10.04,-3.142,1.092,-5.229,-45.809,-56.771
58125,9.997,-2.29,0.477,-4.45,-46.87,-64.321
58177,9.999,-1.384,-0.254,3.519,-44.847,-67.389
58229,9.839,-0.527,-0.96,18.237,-40.214,-65.557
58280,9.753,0.263,-1.629,40.176,-33.656,-59.55
58332,9.587,0.898,-2.086,68.229,-25.885,-50.084
58383,9.453,1.336,-2.632,102.679,-17.198,-38.229
58435,9.13,1.174,-2.886,156.122,-17.137,-29.603
58487,9.633,0.321,-3.772,235.565,-11.084,-37.038
58539,9.178,0.053,-3.19,249.908,8.748,-37.244
58589,8.076,-0.582,-2.651,190.023,14.71,-24.542
58641,8.732,-0.836,-2.203,169.282,16.008,-30.718
58693,8.763,-0.788,-1.653,148.771,14.099,-36.183
58744,9.113,-0.577,-1.157,131.656,10.702,-40.046
58797,9.305,-0.153,-0.857,119.969,6.145,-41.885
58848,9.652,0.352,-0.683,113.924,1.466,-41.366
58898,10.03,0.778,-0.699,112.008,-2.534,-37.702
58950,10.421,1.245,-0.92,112.29,-4.771,-30.366
59001,10.778,1.408,-1.224,112.504,-4.489,-20.611
59054,10.988,1.121,-1.483,110.618,-0.802,-10.336
59106,11.108,0.618,-1.447,106.023,5.443,-2.16
59156,11.158,0.108,-1.466,98.58,12.473,1.84
59205,10.931,-0.486,-1.281,88.656,18.748,2.26
59255,10.67,-1.068,-0.783,76.427,23.603,-1.809
59305,10.483,-1.447,-0.445,62.45,26.282,-9.046
59357,10.284,-1.904,-0.151,47.71,26.031,-19.382
59408,9.92,-1.921,0.362,33.183,23.885,-31.321
59458,9.544,-1.801,0.608,21.092,20.305,-42.405
59508,9.197,-1.356,0.738,12.969,16.0,-51.985
59558,8.967,-0.644,1.066,10.527,11.328,-59.328
59609,8.624,0.206,1.095,16.313,5.908,-63.557
59658,8.543,1.102,0.975,31.328,-0.397,-65.153
59708,8.519,2.096,0.843,57.214,-7.809,-63.267
59758,8.699,3.183,0.335,91.672,-15.84,-57.557
59808,8.795,4.002,-0.52,134.977,-21.916,-47.374
59858,9.048,4.668,-1.88,190.504,-20.718,-35.939
59909,9.12,4.852,-3.099,197.45,-12.718,-10.115
59960,9.63,3.868,-4.136,198.656,4.847,7.977
60009,9.714,2.757,-4.373,192.786,27.221,17.374
60059,9.846,1.703,-4.084,177.588,50.427,19.061
60109,9.937,0.819,-3.317,157.725,69.458,14.313
60160,9.98,0.271,-2.304,137.221,82.74,6.046
60210,9.822,-0.081,-1.068,119.893,89.29,-3.893
60259,9.93,-0.098,0.192,109.557,89.397,-13.389
60309,9.812,0.084,1.267,107.374,83.183,-22.099
60359,9.767,0.527,2.323,115.305,72.305,-29.26
60409,9.594,1.001,3.068,133.573,57.069,-34.519
60460,9.468,1.703,3.427,161.985,39.168,-37.107
60510,9.321,2.407,3.437,200.13,20.29,-36.679
60559,9.233,3.161,2.91,243.649,2.901,-31.489
60609,8.981,3.65,1.868,250.13,-11.626,-20.466
60659,8.917,3.655,0.386,250.13,-18.107,-6.771
60709,8.962,3.104,-0.886,250.13,-16.427,5.824
60760,9.072,2.091,-1.753,250.13,-8.542,14.206
60809,9.178,0.951,-2.139,250.13,1.328,16.366
60859,9.36,-0.153,-1.988,250.13,10.237,12.962
60909,9.614,-1.075,-1.435,250.13,16.046,5.427
60959,9.903,-1.641,-0.798,250.13,17.122,-5.244
61009,10.126,-1.756,-0.144,235.756,13.153,-15.733
61061,10.387,-1.746,0.333,210.748,5.618,-24.26
61112,10.538,-1.554,0.46,188.779,-3.168,-29.771
61164,10.631,-1.506,0.457,169.0,-11.061,-32.977
61217,10.634,-1.492,0.273,150.221,-17.092,-35.198
61270,10.663,-1.55,0.014,132.687,-21.0,-38.603
61323,10.437,-1.717,-0.192,116.359,-22.863,-44.229
61377,10.284,-1.763,-0.256,100.267,-24.351,-52.603
61431,9.844,-1.672,-0.39,85.252,-26.053,-63.237
61484,9.525,-1.336,-0.505,72.198,-28.481,-73.534
61535,9.238,-0.623,-0.659,61.397,-31.359,-82.725
61587,8.977,0.287,-0.86,53.687,-34.649,-88.511
61638,8.653,1.506,-1.437,50.473,-37.061,-89.496
61689,8.38,2.735,-2.153,50.802,-36.863,-84.397
61740,8.33,3.966,-2.984,54.45,-33.725,-73.924
61791,8.402,4.905,-3.863,59.023,-25.458,-57.641
61842,8.466,5.465,-4.682,62.779,-11.672,-37.931
61893,8.409,5.647,-5.303,63.794,7.351,-16.031
61942,8.421,5.382,-5.377,61.908,28.656,3.71
61992,8.371,4.8,-5.087,56.786,50.405,21.282
62043,8.277,4.16,-4.457,49.504,69.397,35.115
62092,8.272,3.403,-3.566,41.13,84.305,45.519
62142,8.282,2.685,-2.555,33.0,94.397,53.053
62192,8.268,1.82,-1.363,26.198,99.954,57.794
62242,8.514,0.889,-0.283,21.504,101.168,59.603
62292,8.553,0.053,0.848,19.618,98.519,58.053
62343,8.787,-0.678,1.933,20.641,92.191,53.107
62392,8.941,-1.454,3.085,25.244,81.802,45.466
62442,9.218,-2.076,4.122,33.45,67.702,34.16
62492,9.353,-2.383,4.895,46.099,49.985,20.412
62542,9.57,-2.467,5.504,63.969,30.504,6.725
62593,9.551,-2.148,5.748,84.008,18.015,-2.863
62643,9.664,-1.653,5.521,99.244,14.282,-8.069
62692,12.097,-0.733,5.396,131.008,-39.496,-13.198
62742,9.942,0.01,4.486,126.229,-51.962,-12.229
62792,9.848,0.455,3.549,122.267,-60.794,-5.733
62842,9.987,0.817,2.314,112.023,-63.626,1.969
62893,10.141,0.75,1.099,99.107,-60.092,9.504
62943,10.339,0.582,0.101,86.084,-50.771,15.214
62993,10.454,0.23,-0.63,75.458,-37.137,18.504
63043,10.567,-0.072,-1.111,68.031,-20.931,19.26
63093,10.608,-0.395,-1.183,64.145,-3.947,17.458
63143,10.576,-0.575,-0.987,62.885,11.542,13.977
63194,10.378,-0.697,-0.527,64.298,24.298,9.328
63243,10.246,-0.604,0.074,66.374,33.809,4.42
63293,9.987,-0.493,0.719,68.634,39.435,0.115
63343,9.805,-0.16,1.516,69.672,41.542,-2.962
63393,9.587,0.249,2.007,68.58,40.817,-4.366
63443,9.432,0.56,2.594,64.603,38.237,-3.359
63494,9.23,1.006,2.836,57.137,35.183,-0.664
63543,9.089,1.267,3.166,47.496,32.053,3.527
63593,9.003,1.241,3.42,36.26,29.748,8.382
63643,8.929,1.174,3.6,25.221,27.313,13.382
63693,8.895,0.905,3.954,16.809,24.626,17.695
63744,8.991,0.448,3.988,12.374,21.466,20.786
63794,9.144,-0.072,4.127,14.092,17.855,22.26
63843,9.247,-0.659,4.246,21.588,13.824,21.344
63893,9.53,-1.154,4.493,34.496,8.618,18.237
63943,9.772,-1.497,4.505,50.115,2.229,12.687
63993,10.035,-1.557,4.548,66.122,-5.542,5.565
64044,10.203,-1.411,4.448,79.695,-14.557,-1.656
64094,10.399,-1.068,4.306,88.557,-24.427,-7.366
64143,10.478,-0.539,3.971,91.687,-34.26,-11.13
64193,10.562,-0.043,3.636,88.542,-43.298,-12.229
64243,10.447,0.505,3.046,79.176,-50.092,-10.687
64293,10.433,1.068,2.405,64.351,-54.153,-6.588
64344,10.26,1.578,1.748,45.023,-55.0,-0.313
64393,10.088,1.894,0.982,23.015,-52.573,7.191
64443,9.844,2.088,0.426,-1.74,-47.603,16.053
64493,9.566,2.263,-0.014,-27.588,-40.832,25.405
64543,9.369,2.108,-0.41,-53.015,-34.527,33.618
64593,9.039,1.746,-0.563,-76.908,-28.908,40.29
64644,8.876,1.329,-0.783,-96.847,-24.397,45.115
64693,8.67,0.812,-0.968,-110.886,-20.618,47.954
64743,8.684,0.103,-1.329,-118.321,-17.145,48.489
64793,8.85,-0.673,-1.653,-117.435,-12.137,46.481
64843,8.957,-1.475,-2.165,-108.878,-5.267,42.015
64893,9.329,-2.1,-2.51,-93.115,4.679,35.344
64944,9.65,-2.529,-2.74,-73.466,17.916,26.176
64993,10.035,-2.709,-2.613,-52.313,33.214,15.901
65043,10.167,-2.759,-2.189,-30.405,49.16,4.885
65093,10.39,-2.52,-1.518,-9.115,63.16,-6.0
65143,10.509,-2.227,-0.577,10.282,73.947,-16.504
65193,10.564,-1.787,0.438,27.435,79.977,-26.382
65244,10.473,-1.19,1.466,40.336,80.481,-34.87
65293,10.447,-0.599,2.457,48.214,75.908,-40.634
65343,10.315,0.204,3.355,49.779,67.458,-43.366
65393,10.078,1.023,3.866,43.809,56.679,-42.298
65443,9.891,1.765,4.304,30.092,45.603,-37.351
65494,9.52,2.385,4.747,9.672,34.351,-28.672
65544,9.223,2.733,4.931,-15.908,24.0,-17.351
65593,8.886,2.946,5.173,-44.122,13.748,-5.527
65643,8.474,2.527,5.389,-71.824,3.252,5.435
65693,8.327,1.954,5.362,-95.015,-5.901,12.947
65743,8.042,1.183,4.9,-110.13,-12.55,16.496
65794,8.026,0.326,4.613,-114.84,-17.038,17.351
65844,8.014,-0.455,4.282,-108.603,-19.092,16.153
65894,8.213,-1.212,3.621,-91.13,-18.733,13.924
65944,8.574,-1.83,3.161,-65.641,-16.985,10.664
65994,8.838,-2.321,2.903,-34.565,-14.26,5.84
66044,9.18,-2.567,2.728,-2.115,-11.855,-1.466
66095,9.688,-2.627,2.793,28.42,-10.053,-10.519
66144,10.023,-2.306,3.032,54.252,-10.481,-19.565
66194,10.358,-1.621,3.209,73.756,-13.756,-27.214
66244,10.581,-0.879,3.164,85.466,-18.893,-31.481
66294,10.794,-0.05,3.142,89.473,-24.863,-31.489
66344,10.909,0.697,3.097,85.282,-30.87,-27.878
66395,10.945,1.205,2.92,73.718,-36.527,-21.374
66444,10.881,1.82,2.747,56.595,-41.634,-12.435
66494,10.763,2.249,2.462,35.26,-46.107,-1.183
66544,10.428,2.424,2.136,11.046,-49.618,11.26
66594,10.133,2.402,1.526,-14.298,-51.718,23.351
66644,9.729,2.021,0.989,-38.015,-51.42,33.221
66695,9.451,1.533,0.501,-58.168,-50.237,39.366
66744,9.08,0.896,-0.163,-72.672,-47.763,41.893
66794,8.852,0.139,-0.879,-80.718,-43.817,41.489
66844,8.708,-0.501,-1.624,-82.099,-38.107,38.603
66894,8.773,-1.202,-2.522,-77.29,-28.511,33.618
66945,8.883,-1.509,-3.159,-67.786,-15.336,27.069
66995,9.101,-1.768,-3.478,-49.595,-8.198,23.336
67045,9.096,-1.818,-3.372,-27.794,-4.718,22.534
67096,17.718,-18.075,0.251,-12.038,34.412,3.267
67147,9.901,-1.708,-3.672,-21.221,44.87,4.13
67197,9.748,-1.619,-2.242,-15.718,53.328,1.229
67247,9.767,-1.562,-1.403,-13.26,59.863,-2.382
67298,9.915,-1.344,-0.424,-13.237,63.206,-5.008
67349,10.028,-1.051,0.376,-16.466,62.389,-6.702
67400,10.117,-0.85,1.303,-22.595,58.076,-6.931
67450,10.289,-0.697,2.041,-31.191,49.969,-5.366
67502,10.296,-0.455,2.735,-42.725,38.695,-2.725
67553,10.258,-0.489,3.188,-57.0,25.069,0.565
67603,10.102,-0.577,3.506,-73.412,9.641,3.45
67652,9.98,-0.79,3.564,-92.084,-6.16,5.321
67702,9.769,-1.044,3.231,-112.389,-21.45,4.557
67752,9.628,-1.341,2.462,-132.458,-34.45,0.817
67803,9.506,-1.492,1.605,-150.817,-43.679,-5.473
67854,9.518,-1.31,0.491,-163.061,-48.252,-13.748
67907,9.549,-0.824,-0.862,-165.573,-46.42,-21.557
67961,9.52,0.007,-2.024,-156.0,-37.893,-25.534
68015,9.8,0.932,-2.627,-134.962,-24.931,-23.137
68068,10.002,1.691,-2.874,-105.603,-10.695,-14.588
68121,10.038,1.844,-2.759,-72.183,3.481,-2.0
68171,10.181,1.823,-2.498,-41.313,14.824,10.351
68222,10.076,1.542,-2.024,-12.351,24.351,21.191
68274,10.145,1.073,-1.403,11.557,31.756,29.588
68324,10.009,0.505,-0.922,28.802,37.053,34.496
68373,9.884,-0.148,-0.275,38.405,40.092,36.55
68423,9.767,-0.699,0.295,40.58,40.053,35.779
68473,9.743,-1.231,0.941,34.908,37.45,32.908
68524,9.508,-1.739,1.562,21.733,32.328,28.679
68574,9.398,-2.048,2.002,2.427,24.916,23.359
68623,9.422,-2.373,2.282,-21.481,15.802,18.053
68673,9.338,-2.393,2.376,-49.802,6.206,12.504
68723,9.199,-2.594,2.098,-79.435,-3.664,7.053
68773,9.245,-2.555,1.624,-108.626,-12.076,0.924
68824,9.309,-2.421,1.075,-134.061,-17.947,-5.534
68873,9.36,-2.148,0.307,-152.84,-20.221,-12.366
68923,9.58,-1.54,-0.486,-163.504,-18.832,-18.198
68975,9.834,-0.685,-0.98,-164.374,-14.336,-21.069
69029,10.167,0.196,-1.205,-155.634,-7.702,-18.672
69083,10.426,0.936,-1.229,-140.282,-1.74,-10.908
69136,10.691,1.238,-1.068,-122.443,2.649,0.42
69185,10.746,1.233,-1.056,-104.84,4.947,11.954
69236,10.854,0.941,-0.934,-88.336,5.863,22.687
69286,10.785,0.56,-0.941,-74.389,6.74,30.595
69337,10.72,-0.077,-0.97,-63.0,7.527,35.344
69387,10.469,-0.592,-0.97,-54.969,9.26,37.672
69438,10.22,-1.104,-1.095,-50.206,12.137,37.176
69490,10.026,-1.542,-1.317,-48.939,15.992,34.679
69542,9.602,-1.959,-1.394,-51.221,20.588,30.466
69594,9.357,-2.249,-1.396,-56.641,25.473,25.687
69644,8.945,-2.278,-1.303,-65.0,30.122,21.733
69695,8.751,-2.333,-1.085,-75.672,33.565,19.153
69746,8.672,-2.237,-0.707,-88.809,35.374,18.298
69797,8.589,-2.172,-0.362,-104.137,35.275,19.168
69849,8.569,-2.211,-0.057,-121.939,33.176,20.756
69901,8.852,-2.323,0.4,-142.893,28.718,22.389
69952,9.036,-2.553,0.627,-166.649,22.702,23.046
70003,9.369,-2.879,0.683,-191.595,15.534,20.992
70054,9.707,-3.245,0.357,-215.832,7.962,14.534
70104,10.083,-3.336,-0.11,-234.886,2.443,4.183
70155,10.478,-2.991,-0.759,-247.206,1.191,-8.756
70207,10.682,-2.297,-1.468,-249.397,6.137,-20.427
70260,10.84,-1.152,-1.729,-241.305,16.046,-26.931
70313,10.984,-0.007,-1.705,-223.74,28.359,-25.198
70368,10.948,1.011,-1.423,-199.985,38.412,-15.916
70421,10.811,1.775,-0.778,-173.794,44.611,-0.878
70473,10.55,2.27,0.041,-148.886,45.145,16.702
70524,10.243,2.414,0.802,-127.901,40.603,34.863
70575,9.894,2.287,1.581,-111.198,31.198,52.321
70625,9.448,1.847,2.026,-101.809,18.221,67.023
70675,8.993,1.035,2.424,-99.954,3.008,77.908
70725,8.61,0.103,2.354,-106.901,-13.092,85.382
70775,8.21,-0.924,1.947,-123.176,-29.389,88.282
70825,7.98,-2.096,1.071,-147.374,-45.519,85.847
70878,7.887,-3.358,-0.251,-176.893,-59.779,75.992
70931,7.896,-4.278,-2.335,-205.099,-68.145,56.496
70983,8.133,-4.46,-4.871,-221.282,-62.626,30.046
71036,8.354,-3.444,-6.979,-218.313,-39.168,5.252
71089,8.811,-1.744,-7.961,-196.389,-3.641,-7.397
71141,8.866,-0.362,-7.511,-150.634,31.183,-9.405
71193,8.795,0.644,-6.505,-114.565,61.145,-2.206
71243,8.739,1.121,-5.135,-107.206,83.122,12.145
71294,8.608,1.015,-3.945,-117.954,97.061,31.305
71346,8.828,0.836,-2.544,-110.046,103.71,43.481
71398,8.759,0.354,-1.059,-101.489,103.473,53.214
71449,8.991,-0.302,0.12,-96.763,97.427,59.45
71499,8.965,-0.98,1.056,-97.756,88.557,62.191
71549,9.065,-1.727,1.844,-106.519,76.817,62.641
71601,9.156,-2.591,2.393,-123.748,61.672,59.817
71652,9.127,-3.559,2.68,-150.649,45.092,53.107
71702,9.307,-4.318,2.429,-188.198,28.588,42.527
71753,9.422,-4.613,1.597,-225.931,17.183,39.328
71804,8.866,-5.3,-0.038,-250.137,28.031,24.611
71857,9.082,-5.501,-0.63,-250.137,34.504,-9.359
71908,9.638,-4.081,-1.55,-242.672,26.481,-16.29
71961,9.592,-3.281,-1.648,-199.458,33.397,-18.443
72014,9.688,-2.426,-1.351,-195.489,48.855,-15.252
72068,9.949,-2.117,-0.623,-180.916,54.229,-10.664
72121,10.011,-1.717,0.108,-168.588,54.656,-5.489
72172,10.076,-1.686,0.738,-160.916,50.626,-1.252
72224,10.294,-1.736,0.982,-156.275,43.733,0.908
72275,10.363,-1.653,1.133,-153.282,36.008,1.183
72327,10.442,-1.535,0.953,-150.786,29.626,0.328
72377,10.344,-1.212,0.707,-148.366,25.656,0.145
72428,10.399,-0.843,0.386,-145.817,24.824,1.557
72479,10.181,-0.41,0.287,-143.336,25.573,6.038
72530,10.057,-0.079,0.261,-141.183,27.015,13.565
72583,9.844,0.16,0.486,-140.588,27.366,23.45
72632,9.642,0.134,0.599,-141.458,25.435,34.947
72682,9.355,-0.148,0.826,-144.794,21.328,45.573
72733,9.216,-0.742,0.92,-150.603,13.908,54.214
72784,9.02,-1.583,0.819,-156.74,5.275,58.939
72834,8.905,-2.517,0.453,-161.786,-3.87,58.947
72885,8.914,-3.533,-0.41,-161.603,-11.214,53.84
72938,9.0,-4.289,-1.432,-152.687,-14.137,42.977
72991,9.218,-4.922,-2.642,-133.008,-9.702,28.366
73042,9.309,-5.128,-3.605,-104.038,2.214,11.618
73094,9.403,-4.951,-3.995,-70.206,19.473,-4.611
73145,9.594,-4.622,-3.851,-35.038,39.221,-19.55
73197,9.441,-4.1,-3.267,-2.298,57.206,-33.519
73248,9.532,-3.583,-2.395,23.603,70.176,-46.389
73298,9.331,-2.97,-1.205,41.519,77.336,-57.84
73350,9.329,-2.179,0.002,49.87,78.092,-66.931
73400,9.355,-1.255,1.056,48.947,73.886,-72.824
73450,9.285,-0.268,2.12,39.55,65.824,-73.947
73499,9.324,0.711,2.893,23.275,55.939,-70.504
73549,9.353,1.588,3.513,1.389,45.16,-62.244
73600,9.25,2.203,3.997,-25.916,33.328,-49.695
73650,9.269,2.704,4.563,-63.26,22.489,-35.489
73699,9.046,2.788,4.922,-112.504,15.855,-23.847
73749,8.603,2.314,4.79,-145.443,20.473,-18.42
73799,6.244,2.857,3.619,-210.847,-24.252,-22.275
73850,8.835,0.855,4.905,-169.504,-31.779,-6.885
73901,8.871,0.206,4.591,-149.519,-39.389,-9.481
73952,8.957,-0.086,3.863,-131.282,-44.679,-15.282
74005,9.199,-0.192,3.032,-115.84,-46.55,-21.511
74058,9.463,-0.017,2.026,-104.779,-43.649,-27.099
74110,9.817,0.386,1.289,-100.496,-36.84,-30.443
74163,10.188,0.941,0.776,-102.656,-26.855,-30.038
74216,10.426,1.308,0.594,-109.405,-15.137,-25.267
74269,10.737,1.506,0.738,-117.786,-4.359,-17.412
74321,10.881,1.348,0.956,-125.45,3.58,-8.382
74371,10.902,1.02,1.375,-130.947,8.214,-0.656
74421,10.864,0.548,1.76,-131.267,8.924,4.794
74471,10.825,-0.084,2.053,-127.809,6.679,6.779
74521,10.653,-0.766,2.215,-120.618,2.481,3.893
74571,10.461,-1.315,2.199,-108.298,-1.328,-2.504
74621,10.248,-1.708,2.074,-92.389,-3.641,-11.687
74674,9.896,-1.856,1.854,-74.122,-3.687,-22.168
74725,9.566,-1.693,1.744,-56.107,-1.901,-32.359
74775,9.235,-1.413,1.631,-40.679,1.221,-41.412
74825,8.989,-0.831,1.578,-30.252,4.84,-48.679
74875,8.802,-0.17,1.547,-26.13,9.008,-53.977
74926,8.792,0.774,1.657,-31.023,13.733,-56.733
74975,8.739,1.861,2.033,-44.756,18.038,-55.695
75025,8.914,2.891,2.658,-67.305,21.542,-50.015
75075,9.034,3.691,3.286,-95.275,22.115,-38.58
75125,9.35,4.167,4.16,-123.924,17.87,-22.634
75175,9.508,3.909,5.02,-148.664,7.305,-4.954
75226,9.673,3.252,5.425,-164.351,-8.733,10.107
75275,9.75,2.27,5.365,-170.198,-27.618,19.008
75326,9.901,1.209,4.936,-166.275,-47.275,21.267
75376,9.966,0.18,4.206,-154.916,-63.351,16.87
75427,10.018,-0.455,3.075,-139.061,-73.672,7.634
75480,10.04,-0.865,1.952,-122.641,-77.198,-3.931
75533,9.956,-0.97,0.666,-109.389,-74.176,-15.977
75586,9.93,-0.769,-0.441,-103.046,-64.466,-26.763
75639,9.827,-0.254,-1.308,-105.542,-49.298,-35.519
75694,9.719,0.39,-1.933,-118.519,-30.649,-40.542
75747,9.511,1.2,-2.132,-141.992,-9.832,-41.466
75799,9.369,1.952,-2.024,-174.878,10.962,-37.481
75851,9.252,2.544,-1.413,-214.756,30.489,-28.397
75902,9.163,2.963,-0.414,-250.137,45.336,-14.305
75955,9.0,2.757,1.023,-250.137,53.244,3.702
76004,9.003,1.926,2.292,-250.137,52.427,21.229
76054,8.953,0.383,3.535,-250.137,42.153,35.183
76104,9.166,-1.497,3.856,-250.137,26.008,39.443
76154,9.456,-3.382,3.806,-250.137,9.779,31.603
76205,9.81,-4.474,2.987,-206.053,-0.237,14.252
76256,9.927,-4.757,2.208,-149.916,-0.626,-2.13
76306,9.721,-5.262,2.029,-93.985,4.282,-17.672
76356,10.469,-4.05,1.897,-44.023,4.366,-37.305
76407,10.222,-3.166,2.136,-39.779,9.794,-55.901
76459,10.251,-2.361,2.433,-22.702,9.389,-63.198
76510,10.023,-1.533,2.773,-14.229,6.031,-67.145
76560,9.944,-0.683,3.147,-14.725,0.519,-67.405
76610,9.786,0.101,3.506,-24.176,-5.947,-64.534
76660,9.568,0.695,3.633,-41.45,-13.206,-59.641
76711,9.355,1.09,3.693,-65.382,-20.053,-54.038
76762,9.228,1.324,3.518,-94.802,-25.183,-49.618
76813,9.111,1.509,3.264,-127.496,-27.55,-46.618
76865,8.953,1.751,2.881,-162.87,-26.313,-44.45
76917,8.921,1.966,2.62,-200.122,-21.763,-42.718
76968,8.938,2.129,2.512,-239.069,-15.153,-40.679
77021,9.103,2.182,2.575,-250.137,-7.145,-37.382
77072,9.183,2.189,2.843,-250.137,0.252,-32.198
77122,9.379,1.997,3.114,-250.137,6.427,-24.985
77171,9.657,1.485,3.681,-250.137,8.275,-16.336
77221,9.889,0.556,4.031,-250.137,3.198,-8.954
77272,10.04,-0.778,4.016,-250.137,-7.298,-7.481
77323,10.301,-2.074,3.255,-250.137,-18.466,-15.58
77377,10.464,-2.843,1.844,-250.137,-22.206,-32.153
77430,10.627,-2.618,0.448,-250.137,-14.122,-49.481
77485,10.727,-1.698,-0.606,-250.137,4.58,-59.885
77538,10.715,-0.469,-1.128,-250.137,28.29,-59.031
77592,10.457,0.879,-0.884,-250.137,51.809,-45.718
77645,10.124,1.878,-0.077,-250.137,69.061,-21.779
77698,9.738,2.201,1.087,-250.137,75.382,8.893
77748,9.343,1.751,2.223,-250.137,68.176,38.626
77798,8.924,0.522,2.958,-250.137,48.435,62.191
77848,8.5,-1.154,3.042,-250.137,20.076,73.985
77898,8.299,-2.996,2.242,-250.137,-9.176,71.405
77948,8.177,-4.328,0.798,-250.137,-31.634,57.008
78001,7.92,-4.845,-0.98,-241.0,-47.794,44.786
78054,8.002,-5.255,-2.165,-118.229,-63.275,29.45
78107,8.557,-4.464,-4.093,-88.886,-47.519,-8.802
78158,8.668,-3.233,-5.001,-191.664,-17.527,-0.389
78212,8.672,-2.378,-6.114,-227.405,7.0,-9.748
78263,8.871,-0.314,-6.191,-230.695,31.885,-6.305
78315,8.943,1.006,-5.372,-217.618,53.885,8.527
78364,8.955,1.71,-4.246,-194.519,66.252,27.618
78415,9.084,1.677,-3.322,-168.183,71.687,47.115
78467,9.103,1.219,-2.417,-142.542,71.588,62.084
78518,9.285,0.479,-1.672,-122.397,68.748,71.817
78568,9.259,-0.292,-1.217,-110.008,65.107,76.344
78620,9.264,-1.188,-0.707,-107.313,60.985,76.985
78672,9.307,-1.89,-0.575,-114.87,56.573,73.977
78725,9.424,-2.697,-0.398,-132.58,51.977,68.565
78777,9.293,-3.262,-0.477,-157.901,47.702,61.779
78828,9.357,-3.621,-0.568,-190.481,42.679,55.053
78880,9.314,-3.846,-0.678,-228.237,37.687,48.863
78932,9.252,-3.933,-1.15,-250.137,32.977,43.252
78985,9.276,-3.818,-1.765,-250.137,29.176,37.893
79036,9.285,-3.621,-2.46,-250.137,27.145,33.237
79088,9.362,-3.025,-3.114,-250.137,27.748,30.008
79140,9.429,-2.266,-3.686,-250.137,30.076,29.29
79193,9.511,-1.415,-3.832,-250.137,33.076,30.947
79245,9.53,-0.558,-3.825,-250.137,35.985,35.168
79296,9.69,0.263,-3.49,-250.137,38.351,41.206
79347,9.659,0.79,-2.738,-250.137,38.092,49.908
79398,9.753,1.171,-1.962,-250.137,34.885,59.115
79450,9.731,1.008,-0.977,-250.137,27.435,67.924
79500,9.81,0.68,-0.204,-250.137,15.565,74.298
79551,9.681,0.005,0.333,-250.137,-0.221,76.42
79601,9.647,-0.855,0.572,-250.137,-17.42,71.794
79653,9.525,-1.775,0.201,-250.137,-34.763,59.672
79706,9.329,-2.266,-0.527,-250.137,-47.412,39.87
79758,9.319,-2.297,-1.768,-250.137,-51.336,14.252
79811,9.307,-1.607,-2.982,-250.137,-43.45,-10.985
79865,9.185,-0.12,-3.6,-250.137,-24.588,-29.183
79920,9.077,1.593,-3.478,-250.137,-1.267,-34.122
79972,9.068,3.018,-2.675,-250.137,16.855,-28.656
80023,8.965,3.851,-1.217,-184.542,26.908,-20.473
80075,8.387,4.486,-0.283,-106.397,36.763,-11.641
80128,9.302,5.434,1.001,-71.656,42.679,12.802
80177,8.172,4.57,2.285,-107.427,28.084,25.313
80226,9.206,3.679,2.79,-134.435,13.038,32.656
80276,9.537,2.809,3.571,-127.496,0.977,39.13
80326,9.666,1.856,3.892,-112.206,-14.153,40.466
80376,9.824,1.025,3.875,-91.672,-29.603,37.427
80427,9.949,0.592,3.334,-71.214,-42.679,31.351
80477,10.126,0.352,2.723,-54.122,-51.916,24.916
80527,10.081,0.433,1.904,-42.336,-56.763,19.191
80578,10.097,0.474,0.886,-37.588,-57.298,15.366
80628,10.023,0.707,0.218,-40.725,-53.71,13.695
80679,10.021,0.932,-0.489,-51.435,-47.214,13.779
80732,10.047,1.111,-1.063,-69.672,-38.618,14.58
80784,9.738,1.087,-1.504,-94.298,-28.527,15.916
80835,9.764,1.19,-1.717,-123.16,-18.489,16.702
80886,9.568,1.135,-1.801,-155.29,-8.534,17.374
80937,9.441,1.154,-1.7,-187.786,-0.466,18.481
80989,9.319,1.099,-1.42,-218.473,5.069,19.664
81039,9.362,1.018,-1.051,-245.718,7.733,21.031
81088,9.458,0.721,-0.783,-250.137,7.992,21.382
81138,9.479,0.455,-0.575,-250.137,7.656,20.282
81188,9.582,0.273,-0.592,-250.137,7.405,18.16
81239,9.99,0.232,-0.587,-250.137,8.466,15.687
81289,10.152,0.206,-0.584,-250.137,10.962,14.13
81340,10.445,0.295,-0.419,-250.137,14.756,14.008
81392,10.579,0.326,-0.11,-250.137,18.122,16.595
81444,10.725,0.218,0.457,-250.137,19.13,21.122
81495,10.9,-0.206,0.944,-250.137,15.687,25.595
81547,10.857,-0.829,1.164,-250.137,7.931,26.702
81598,10.849,-1.732,1.245,-250.137,-0.84,21.359
81650,10.533,-2.287,0.601,-250.137,-6.305,9.618
81701,10.452,-2.654,-0.077,-250.137,-5.489,-5.802
81754,10.246,-2.474,-0.96,-250.137,4.076,-21.87
81807,9.848,-2.005,-1.521,-250.137,21.328,-32.878
81860,9.444,-1.075,-1.657,-250.137,42.618,-35.672
81913,9.135,-0.218,-1.284,-250.137,62.931,-28.229
81967,8.689,0.39,-0.304,-250.137,77.855,-12.084
82018,8.442,0.251,1.032,-250.137,83.58,8.718
82068,8.339,-0.556,2.215,-250.137,79.656,27.229
82118,8.39,-1.921,3.231,-250.137,68.496,38.855
82169,8.744,-3.566,3.76,-218.191,54.13,39.618
82220,8.895,-4.828,3.839,-165.183,52.496,40.42
82271,2.098,-5.844,4.627,-16.626,28.611,34.168
82321,7.774,-6.289,4.529,-0.542,0.832,-6.756
82371,9.123,-5.71,4.665,-96.886,11.519,-36.626
82421,9.618,-5.243,3.942,-126.511,0.405,-57.779
82471,9.64,-4.598,3.228,-150.565,-2.733,-76.527
82523,9.623,-3.655,2.646,-168.763,0.137,-90.55
82574,9.7,-2.548,2.093,-181.626,7.725,-97.878
82624,9.681,-1.37,2.057,-192.038,17.55,-98.099
82676,9.671,-0.321,2.194,-203.656,27.542,-90.855
82728,9.697,0.357,2.783,-219.084,35.336,-79.0
82780,9.64,0.608,3.425,-240.046,39.176,-64.366
82830,9.424,0.469,3.904,-250.137,39.267,-50.504
82881,9.276,-0.096,4.33,-250.137,36.588,-39.183
82933,9.19,-0.776,4.345,-250.137,33.534,-31.305
82985,8.953,-1.708,4.043,-250.137,32.565,-26.588
83038,8.876,-2.479,3.303,-250.137,34.069,-23.031
83089,8.905,-3.058,2.4,-250.137,37.664,-19.618
83141,8.814,-3.358,1.403,-250.137,42.42,-14.58
83193,9.168,-3.401,0.498,-250.137,46.702,-7.45
83245,9.295,-3.31,-0.12,-250.137,48.198,1.275
83295,9.441,-3.346,-0.635,-250.137,46.725,8.351
83346,9.709,-3.166,-1.219,-250.137,44.046,12.237
83398,10.018,-2.812,-1.691,-250.137,43.069,12.84
83451,10.351,-2.199,-2.009,-250.137,45.389,12.58
83505,10.533,-1.442,-1.928,-250.137,50.282,15.145
83557,10.591,-0.764,-1.502,-250.137,55.168,21.237
83610,10.62,-0.194,-0.805,-250.137,57.366,31.443
83663,10.435,-0.096,0.072,-250.137,53.58,44.099
83716,10.222,-0.295,0.927,-250.137,43.0,56.0
83768,10.016,-0.824,1.427,-250.137,26.13,63.809
83819,9.662,-1.602,1.473,-250.137,5.901,65.145
83869,9.46,-2.443,1.054,-250.137,-13.29,58.893
83921,9.142,-3.011,0.055,-250.137,-28.84,45.443
83974,8.907,-3.202,-1.051,-250.137,-36.824,28.214
84026,8.732,-2.872,-2.304,-224.214,-37.13,11.687
84079,8.514,-2.294,-3.068,-151.664,-40.183,0.763
84131,8.486,-1.619,-3.739,-84.069,-38.29,-9.695
84184,8.706,-0.659,-4.007,-55.573,-20.527,-18.229
84237,8.981,0.144,-4.318,-75.107,-6.779,-7.87
84363,9.058,1.566,-4.131,-64.206,22.924,9.015
84412,9.276,1.789,-3.825,-46.977,33.573,18.206
84462,9.355,1.562,-3.262,-30.076,42.305,26.977
84512,9.544,1.147,-2.658,-16.221,49.511,33.901
84562,9.743,0.604,-2.124,-7.534,55.176,38.603
84613,9.82,-0.141,-1.643,-4.031,59.611,39.916
84662,9.858,-0.79,-1.186,-6.626,62.168,37.618
84712,9.829,-1.506,-0.613,-15.298,63.366,32.374
84762,9.872,-2.084,-0.098,-28.733,62.107,24.931
84812,9.93,-2.553,0.486,-46.55,59.107,15.473
84862,9.834,-2.934,0.747,-67.481,55.084,4.618
84913,9.745,-3.032,0.987,-90.55,51.885,-6.176
84962,9.69,-2.738,1.162,-113.244,49.931,-14.779
85012,9.544,-2.412,1.25,-136.252,49.122,-19.588
85062,9.518,-2.074,1.746,-157.321,47.718,-21.573
85112,9.405,-1.861,2.33,-176.221,44.427,-21.366
85163,9.439,-1.734,2.829,-193.695,38.496,-20.611
85213,9.549,-1.72,3.31,-211.122,30.107,-19.718
85262,9.681,-1.868,3.631,-228.802,20.405,-20.16
85312,9.736,-2.105,3.662,-249.313,9.351,-23.252
85362,9.927,-2.287,3.322,-250.137,-0.908,-29.618
85412,10.035,-2.397,2.761,-250.137,-7.206,-39.519
85463,10.097,-2.139,2.036,-250.137,-7.565,-50.626
85514,10.141,-1.595,1.408,-250.137,-1.634,-60.29
85567,10.208,-0.774,0.948,-250.137,10.092,-65.511
85619,10.15,0.228,0.941,-250.137,23.969,-63.695
85671,10.121,1.015,1.427,-250.137,35.282,-54.229
85724,10.109,1.677,2.335,-250.137,40.061,-39.504
85776,9.932,1.77,3.372,-250.137,36.45,-22.458
85826,9.815,1.463,4.361,-250.137,24.0,-7.74
85876,9.611,0.831,5.063,-242.168,4.618,2.137
85926,9.283,-0.014,5.355,-237.832,-18.756,4.122
85977,9.051,-0.913,4.919,-242.863,-40.649,-2.649
86027,8.864,-1.607,3.918,-250.137,-56.489,-17.305
86080,8.706,-1.779,2.577,-250.137,-62.832,-37.55
86133,8.589,-1.303,1.243,-250.137,-58.58,-58.397
86187,8.706,-0.146,0.299,-250.137,-45.244,-75.031
86240,8.912,1.502,-0.005,-250.137,-26.771,-82.496
86292,9.281,3.305,0.436,-250.137,-9.855,-77.42
86343,9.681,4.699,1.265,-217.229,-1.588,-61.168
86394,9.896,5.367,2.182,-165.588,-4.511,-37.427
86446,10.272,5.461,2.761,-112.931,-17.122,-11.687
86499,10.387,5.044,2.57,-61.321,-33.405,13.466
86549,10.303,4.483,1.978,-15.939,-46.511,35.481
86600,10.267,3.734,1.03,23.588,-53.069,55.282
86650,10.061,2.797,0.084,55.282,-52.0,71.74
86701,9.827,1.586,-0.817,77.725,-43.298,84.183
86751,9.662,0.259,-1.406,88.153,-29.954,90.389
86801,9.568,-1.092,-1.65,85.481,-14.794,89.282
86851,9.353,-2.395,-1.523,69.031,-1.389,82.031
86901,9.08,-3.372,-1.461,39.916,8.321,70.069
86951,8.881,-4.06,-1.363,-1.397,14.855,56.366
87002,8.632,-4.189,-1.492,-60.71,20.466,47.443
87051,8.423,-4.17,-1.643,-127.115,27.122,45.634
87103,10.198,-4.414,-1.298,-142.855,39.481,31.29
87155,8.076,-4.007,-1.825,-95.344,30.527,21.969
87206,8.253,-3.981,-1.681,-82.748,34.115,20.344
87258,8.294,-3.952,-1.277,-71.595,35.969,18.992
87309,8.452,-4.064,-0.929,-64.489,37.206,17.031
87360,8.842,-4.186,-0.654,-61.695,38.053,12.962
87410,9.125,-4.414,-0.22,-62.947,38.282,6.802
87460,9.465,-4.345,0.156,-66.641,37.176,-1.275
87511,9.791,-4.275,0.431,-71.107,34.824,-10.359
87562,10.04,-4.007,0.529,-74.504,30.664,-19.71
87613,10.275,-3.727,0.386,-75.061,26.382,-29.519
87665,10.411,-3.353,0.225,-72.107,23.664,-38.542
87717,10.536,-2.809,-0.211,-63.336,23.015,-46.679
87771,10.586,-0.915,-0.364,-43.229,21.954,-40.656
87823,10.533,-0.666,-1.035,-4.74,28.023,-28.252
87875,9.568,-1.626,-0.893,-1.687,28.74,-24.038
87926,10.263,0.453,0.304,-38.962,32.26,-23.313
87977,10.639,-1.499,-0.778,-44.183,29.29,-10.45
88031,11.046,-0.659,0.505,12.962,23.733,-8.725
88080,12.354,-0.503,0.707,16.985,16.733,-11.412
88131,11.625,-1.401,0.517,-62.298,15.962,-15.267
88183,11.24,-0.867,1.231,-48.511,6.969,-21.282
88235,10.744,-0.117,0.874,-14.435,0.679,-20.397
88285,10.459,0.216,1.245,-8.458,-2.397,-16.122
88335,10.33,0.115,1.025,1.885,0.718,-10.351
88385,10.162,0.072,0.663,11.641,5.779,-3.092
88435,10.047,0.685,0.51,-27.885,10.046,5.031
88485,9.805,-0.204,0.958,4.824,11.603,7.947
88536,9.494,-0.616,1.233,5.504,12.718,7.962
88585,9.604,-0.156,0.786,14.695,14.878,10.298
88635,9.599,0.22,1.358,16.427,15.779,13.0
88685,9.657,-0.331,1.078,-1.237,18.122,14.412
88735,9.281,-0.429,1.099,19.702,12.046,13.267
88785,9.178,-0.213,0.951,-1.908,8.71,14.153
88836,9.942,-0.057,1.145,13.756,6.252,14.069
88885,10.109,-0.515,0.833,0.603,4.237,13.863
88935,10.77,-0.788,1.135,-10.374,1.611,9.191
88985,10.564,-1.08,0.86,-9.458,-3.863,2.55
89035,10.22,-0.414,0.836,-6.779,-5.931,-0.824
89085,10.061,-0.172,0.558,5.206,-6.443,0.985
89136,9.662,-0.374,0.857,-18.015,-7.84,4.405
89185,8.969,-0.874,0.826,-4.809,-9.473,1.115
89235,8.771,-0.692,0.771,-1.824,-12.198,-3.557
89285,9.123,-0.398,0.654,-3.687,-12.214,-3.099
89335,8.809,-1.308,0.817,11.099,-15.008,-6.344
89385,8.754,-0.527,1.056,-1.145,-17.84,-14.008
89436,9.424,-0.704,0.055,14.588,-16.588,-15.183
89485,9.056,-0.194,0.462,21.588,-13.137,-15.069
89535,9.575,-0.671,-0.465,29.786,-7.931,-12.466
89585,9.535,-0.041,0.213,39.298,-3.672,-10.916
89635,9.702,-0.235,0.17,46.267,0.191,-6.672
89686,9.628,-0.496,0.589,45.947,0.092,-4.74
89736,10.038,-0.273,0.69,43.756,0.008,-5.863
89785,10.112,-0.721,0.345,42.0,-1.573,-6.084
89835,10.591,-0.211,0.481,42.214,-1.412,-5.267
89885,10.433,-0.479,0.342,43.603,-0.412,-3.679
89935,10.445,-0.077,0.786,42.809,-4.74,0.947
89986,10.586,-0.369,1.739,44.977,-10.458,0.214
90036,10.651,-1.174,0.759,35.496,-18.305,-3.916
90086,10.05,-0.251,1.19,23.107,-24.939,-5.282
90136,10.385,-0.263,0.503,24.45,-26.382,-2.359
90186,10.464,0.034,0.436,23.305,-26.473,3.099
90236,10.445,0.029,0.747,29.298,-22.405,9.901
90287,10.378,-0.639,0.307,17.924,-21.489,12.26
90336,10.076,-0.232,0.316,22.221,-17.321,14.076
90386,10.55,-0.776,-0.17,10.237,-10.031,13.427
90436,10.423,-0.517,0.091,6.099,-2.908,9.802
90486,10.83,-0.558,-0.007,6.748,6.733,9.969
90536,11.091,-0.544,0.218,5.328,8.863,10.664
90587,10.878,-1.023,0.958,0.771,10.183,6.099
90636,10.141,-0.872,0.606,-20.061,8.504,1.58
90686,9.882,-1.365,0.141,-2.069,7.405,-2.595
90736,10.057,-0.51,0.709,3.267,6.16,-4.725
90786,9.8,-1.008,0.637,-1.672,5.053,-4.298
90836,10.078,-0.764,0.266,0.366,5.336,-6.824
90887,10.081,-0.867,0.752,19.649,6.603,-7.718
90936,9.594,-0.704,0.604,4.092,6.985,-10.45
90986,8.886,-0.4,0.402,29.221,6.641,-6.733
91036,8.929,-0.771,0.901,34.756,5.16,-4.947
91086,9.597,-0.546,0.989,30.817,2.481,-7.206
91137,9.391,-0.474,0.556,16.092,1.466,-4.733
91187,9.75,-1.162,0.786,33.45,0.855,-9.061
91236,9.772,-0.505,1.015,-4.122,-4.45,-8.656
91286,10.845,-0.038,-0.364,7.214,0.55,-2.336
91336,11.278,-0.774,1.135,29.679,2.084,-0.084
91386,10.66,-0.402,0.901,-4.237,1.595,1.802
91437,10.723,-1.166,0.774,-19.313,-0.504,0.313
91487,10.014,-0.958,0.668,-8.42,-1.191,-4.122
91537,10.526,-1.499,1.691,-36.008,0.794,-7.092
91587,10.361,-0.048,0.635,-25.519,2.45,-6.908
91637,9.745,-0.766,0.285,-77.527,8.336,-0.321
91687,10.636,-0.271,-0.043,-54.099,15.374,8.718
91738,10.232,-1.322,0.843,-55.504,15.16,10.55
91787,11.721,-0.565,0.431,-46.763,11.214,11.489
91837,11.17,-0.553,1.226,-55.481,14.084,16.405
91887,11.484,-1.044,1.145,-47.985,16.107,17.794
91937,10.648,-0.953,1.303,-48.809,17.71,13.42
91987,10.574,-0.589,1.157,-44.366,14.893,15.504
92038,9.827,-0.366,1.212,-61.626,9.496,13.084
92087,8.936,-0.963,1.099,-71.015,3.901,16.099
92137,8.557,-1.744,1.109,-61.687,-0.565,12.015
92187,8.72,-1.02,1.123,-65.55,-2.969,14.771
92237,9.867,-1.039,0.656,-52.618,2.901,15.351
92288,10.32,-0.309,0.592,-47.42,6.687,16.504
92338,10.22,-1.31,0.754,-46.504,13.328,10.794
92387,9.901,-1.181,1.363,-52.863,12.237,1.992
92437,9.786,-1.564,0.85,-55.351,11.954,-6.756
92487,9.056,-0.948,1.748,-51.695,9.458,-13.863
92537,8.615,-1.018,1.03,-72.382,8.481,-20.015
92588,7.425,-0.699,1.938,-74.008,4.878,-20.557
92638,7.789,-0.752,0.915,-74.695,2.374,-19.527
92687,7.274,-0.989,-0.331,-78.267,7.397,-21.298
92737,7.686,-0.929,0.649,-74.519,8.763,-22.985
92787,7.7,-1.097,0.457,-58.626,11.237,-23.595
92837,7.607,-1.238,0.225,-75.069,12.473,-27.931
92888,7.815,-0.987,-0.187,-60.443,15.603,-31.481
92937,7.983,0.108,0.242,-81.16,21.641,-25.893
92987,6.905,-0.695,-0.79,-69.351,28.122,-18.206
93037,6.251,0.285,1.145,-48.794,26.916,-7.954
93087,7.166,-0.58,0.158,-63.939,21.802,-5.931
93137,7.767,1.408,2.012,-75.145,8.954,4.802
93188,8.531,-1.262,0.18,-103.634,-0.916,3.634
93237,10.174,0.57,1.334,-87.183,-12.107,7.443
93287,11.597,-0.041,0.024,-88.664,-12.702,3.13
93337,13.759,0.407,0.774,-87.489,-17.267,11.695
93387,14.293,-0.012,-0.244,-80.679,-14.916,5.321
93437,14.679,0.472,0.323,-91.962,-9.176,1.855
93488,13.005,-0.522,-0.831,-70.16,4.229,0.916
93537,12.646,-0.024,-0.481,-42.588,9.267,-3.183
93587,12.198,0.254,0.52,-40.756,13.382,-1.412
93637,11.075,0.342,0.666,-49.634,9.412,0.504
93687,10.579,0.17,0.4,-32.794,2.405,2.527
93737,11.807,-0.151,0.917,-41.16,-1.618,2.74
93788,12.248,-0.383,0.886,-34.405,-10.298,0.092
93837,12.085,0.084,0.168,-7.687,-12.664,-9.351
93887,10.047,0.144,0.067,-3.092,-2.473,-5.008
93937,9.827,-0.613,0.687,-10.481,2.107,-4.137
93987,10.672,-0.096,0.513,-0.992,2.053,-5.733
94038,10.301,-0.34,0.783,-8.519,3.534,-3.924
94088,10.603,0.007,0.745,1.901,1.733,-2.244
94137,10.152,-0.038,0.783,-5.275,2.046,2.389
94187,10.323,-0.534,0.807,9.206,-0.183,-0.344
94237,10.622,-0.194,0.589,1.496,-0.015,-5.412
94287,10.397,0.0,0.769,11.221,0.374,-2.985
94338,9.975,-0.156,1.121,0.496,-0.863,-2.137
94388,10.059,-0.01,0.968,-17.061,-3.168,-2.237
94438,9.671,0.532,0.886,-27.618,-2.0,1.802
94488,9.111,0.742,0.704,-44.74,4.221,11.443
94538,12.265,-0.098,-4.433,-73.328,19.534,3.443
94588,13.937,-0.381,-1.03,58.885,31.176,-26.611
94639,8.27,2.127,4.131,-23.115,2.42,-4.046
94688,10.004,-1.317,2.326,-50.779,-18.786,6.672
94738,9.446,-0.812,-0.271,-31.733,-13.229,0.031
94788,10.531,0.795,-1.183,-5.832,5.641,-9.244
94838,9.985,0.616,0.86,-5.099,14.969,0.672
94888,9.745,0.704,0.568,-7.092,19.824,7.313
94939,10.366,-0.268,1.667,-12.237,14.382,19.099
94988,10.426,-2.91,3.904,-1.374,2.305,7.031
95038,10.069,-2.065,0.292,8.595,-2.71,-15.374
95088,9.508,3.468,0.953,-5.076,-5.237,-0.153
95138,10.191,-1.844,1.047,-2.885,10.183,1.695
95188,9.951,-0.347,3.015,-3.374,-2.748,-1.443
95239,10.212,-0.79,-0.726,-3.023,-1.878,-8.672
95288,10.248,-1.214,0.673,-3.611,4.939,5.16
95338,10.038,-1.02,2.203,-3.275,-0.328,-2.244
95388,10.002,0.807,0.632,-2.939,-2.168,-4.366
95438,10.054,-0.802,1.538,-3.221,5.328,1.214
95489,10.035,-1.037,1.408,-3.359,-2.397,-2.099
95539,9.987,0.913,0.788,-3.565,0.733,0.595
95588,10.028,-0.659,2.184,-3.191,1.718,-1.137
95638,10.006,-0.237,0.563,-3.29,-0.832,-2.267
95688,10.205,-0.654,1.425,-3.282,2.45,0.573
95738,10.042,-0.342,1.322,-3.221,-0.969,-2.557
95789,10.069,-0.314,0.874,-3.382,2.267,0.015
95839,10.141,-0.644,1.506,-3.305,-0.267,-1.542
95889,10.241,-0.029,0.97,-3.244,0.977,-0.626
95939,10.263,-0.436,1.636,-3.336,0.664,-1.076
95989,10.224,-0.077,0.953,-3.26,0.58,-1.198
96039,10.133,-0.58,1.406,-3.282,1.206,-0.733
96090,10.124,-0.261,1.061,-3.26,0.214,-1.29
96139,10.105,-0.378,1.3,-3.282,1.489,-0.519
96189,10.155,-0.386,1.257,-3.496,-0.008,-1.573
96239,10.028,-0.331,1.2,-3.305,1.466,-0.55
96289,10.021,-0.443,1.308,-3.252,0.359,-1.13
96339,10.021,-0.319,1.121,-3.366,1.115,-0.664
96390,10.109,-0.469,1.442,-3.298,0.366,-1.328
96439,10.057,-0.261,1.162,-3.275,1.076,-0.893
96489,10.076,-0.501,1.308,-3.191,0.725,-1.053
96539,10.184,-0.393,1.104,-3.305,0.527,-1.061
96589,10.174,-0.39,1.413,-3.511,0.756,-0.74
96640,10.059,-0.251,1.178,-3.443,0.275,-1.176
96690,10.112,-0.371,1.286,-3.328,0.893,-0.748
96739,10.126,-0.333,1.241,-3.275,0.389,-1.29
96789,10.042,-0.352,1.178,-3.191,0.985,-0.733
96839,10.078,-0.393,1.157,-3.237,0.573,-1.0
96889,10.22,-0.35,1.255,-3.16,0.939,-0.656
96940,10.105,-0.369,1.236,-3.336,0.641,-0.977
96990,9.958,-0.259,1.248,-3.275,0.779,-0.817
97039,9.956,-0.386,1.262,-3.412,0.656,-1.015
97089,10.088,-0.366,1.193,-3.382,0.779,-0.771
97139,10.009,-0.378,1.31,-3.313,0.603,-0.847
97189,9.992,-0.342,1.152,-3.412,0.595,-1.183
97240,10.011,-0.972,1.415,-3.214,0.802,-1.565
97289,9.97,0.75,1.25,-3.359,-3.588,-2.382
97339,10.152,-0.266,0.819,-3.092,5.611,-0.359
97389,10.057,-0.635,1.31,-3.244,-2.305,-2.527
97439,10.109,-0.189,0.999,-3.351,3.855,0.473
97489,10.083,-0.565,1.413,-3.366,-0.397,-1.061
97540,10.167,-0.426,1.291,-3.267,0.954,-1.229
97589,10.085,-0.273,1.035,-3.237,-0.015,-1.687
97639,10.078,-0.359,1.535,-3.275,0.641,-1.015
97689,9.982,-0.232,1.004,-3.336,1.176,-0.458
97739,10.114,-0.39,1.277,-3.313,1.015,-0.153
97789,10.014,-0.218,1.181,-3.267,1.718,0.656
97840,10.133,-0.218,1.166,-3.183,5.168,0.939
97889,9.973,-0.376,1.76,5.344,4.718,0.679
97939,10.39,-0.168,2.812,25.374,-11.802,2.015
97989,9.923,-0.407,1.015,-3.45,0.924,-2.313
98039,10.04,-0.443,1.442,-3.489,-0.649,-2.42
98089,10.102,0.242,-0.939,-3.221,3.282,-2.878
98140,10.193,-0.101,1.571,-3.382,-1.282,-0.626
98189,9.863,-0.237,1.128,-3.107,1.344,0.45
98239,9.927,-0.486,1.08,-3.305,0.954,0.496
98289,10.033,-0.431,1.451,-3.282,0.954,-0.397
98339,10.109,-0.419,1.253,-3.206,0.954,-1.351
98390,10.035,-0.501,1.435,-3.29,-0.374,-2.618
98440,10.129,-0.393,1.241,-3.321,-0.351,-3.527
98489,10.023,-0.165,1.231,-3.969,-0.542,-3.779
98539,10.16,0.062,1.217,-3.466,-0.588,-2.687
98589,10.105,-0.079,1.054,-3.29,0.45,-0.924
98639,10.093,-0.216,1.209,-3.321,1.924,0.718
98690,10.042,-0.323,1.186,-3.29,1.878,1.359
98740,10.109,-0.465,1.31,-3.275,1.45,1.0
98790,10.045,-0.45,1.296,-3.389,1.153,-0.069
98840,10.107,-0.52,1.37,-3.366,0.695,-1.511
98890,9.942,-0.486,1.463,-3.267,-0.015,-2.885
98940,10.071,-0.175,1.166,-3.504,0.115,-2.962
98991,10.033,-0.086,0.388,-3.443,0.489,-1.527
99040,10.174,-0.254,1.756,-3.267,1.748,0.473
99090,10.047,-0.462,0.762,-3.275,0.458,0.282
99140,10.057,-0.611,1.521,-3.176,0.855,-1.824
99190,10.071,-0.184,1.516,-3.328,2.344,-0.786
99240,10.011,-0.62,0.69,-3.405,0.023,-0.053
99291,10.023,-0.73,1.49,-3.176,-0.046,-1.672
99340,10.117,-0.316,1.253,-3.206,0.298,-2.443
99390,10.061,-0.522,1.569,-3.412,-0.748,-1.908
99440,10.179,-0.127,1.523,-3.374,2.023,-0.832
99490,10.119,-0.081,1.777,-3.359,1.031,-0.038
99540,10.083,-0.484,0.972,-3.267,1.611,0.527
99591,10.045,-0.57,1.411,-3.145,0.733,-0.725
99640,10.088,-0.417,1.231,-3.351,0.779,-1.649
99690,10.076,-0.34,1.418,-3.099,0.198,-1.733
99740,10.088,-0.378,1.214,-3.206,0.336,-1.718
99790,9.975,-0.232,1.138,-3.275,0.702,-1.038
99841,10.095,-0.259,1.317,-3.382,0.069,-0.74
99891,10.057,-0.347,1.463,-3.26,1.672,-1.023
99940,10.117,-0.249,1.221,-3.382,1.145,0.015
99990,10.117,-0.357,1.523,-3.679,0.511,0.328
100040,10.023,-0.443,0.917,-3.58,0.702,-0.061
100090,10.615,-0.35,0.759,-3.313,0.58,-0.832
100141,9.954,-0.34,1.092,-3.427,1.076,-1.397
100191,10.038,-0.347,1.138,-3.221,0.55,-1.397
100241,10.15,-0.45,1.586,-3.397,0.084,-1.847
100291,10.09,-0.319,0.936,-3.221,0.931,-2.13
100341,10.124,-0.074,1.217,-3.466,1.191,-0.809
100391,10.164,-0.338,1.277,-3.382,0.824,0.015
100442,9.999,-0.376,1.356,-3.13,2.046,-0.267
100491,10.112,-0.41,1.188,-3.183,-0.489,-1.183
100541,10.176,-0.259,1.602,-3.069,1.87,-0.809
100591,10.061,-0.402,0.982,-3.282,0.893,-0.771
100641,10.081,-0.436,1.233,-3.275,0.038,-0.908
100691,10.004,-0.41,1.286,-3.282,1.023,-1.573
100742,9.963,-0.323,1.231,-3.252,0.214,-1.13
100791,10.042,-0.366,1.164,-3.366,0.893,-0.847
100841,10.052,-0.474,1.19,-3.313,0.122,-0.557
100891,10.076,-0.326,1.483,-3.305,1.16,-1.221
100941,10.042,-0.326,1.231,-3.191,1.542,-0.595
100992,9.992,-0.429,1.289,-3.336,0.427,-0.55
101042,10.09,-0.35,1.245,-3.176,1.031,-0.985
101091,10.064,-0.386,1.145,-3.366,0.611,-1.229
101141,10.097,-0.393,1.224,-3.351,-0.282,-0.969
101191,10.045,-0.414,1.327,-3.366,1.336,-1.176
101241,10.057,-0.342,1.011,-3.237,0.366,-0.878
