time_ms,ax,ay,az,gx,gy,gz
162,10.066,-0.235,0.515,-3.229,-0.168,-1.0
211,10.09,-0.201,0.417,-3.458,1.092,-1.45
262,10.109,-0.189,0.445,-3.145,1.718,-1.382
312,10.028,-0.225,0.86,-3.321,-2.214,-1.153
362,10.006,-0.168,-0.405,-3.084,3.893,0.229
412,9.973,-0.51,0.733,-3.183,1.939,-1.092
462,10.028,-0.199,0.525,-3.267,1.466,-1.359
513,10.042,-0.232,0.649,-3.305,-0.733,-0.473
562,10.023,-0.168,0.29,-3.145,1.061,-1.069
612,10.057,-0.256,0.568,-3.214,1.328,-1.336
662,10.023,-0.072,0.599,-3.305,0.824,-0.84
712,10.22,-0.041,0.285,-3.405,0.893,-1.26
762,10.064,-0.242,0.723,-3.145,1.221,-0.893
813,9.966,-0.194,0.606,-3.489,1.336,-1.099
862,9.635,-0.22,0.747,-4.023,-0.107,-1.16
912,10.905,-0.038,0.369,-3.863,1.443,-0.954
962,9.19,-0.216,0.319,-4.443,0.153,-1.275
1012,10.138,-0.275,0.702,-3.427,1.084,-0.939
1062,10.093,-0.302,0.927,-3.359,-1.382,-1.183
1113,10.138,0.031,0.508,-4.0,-2.931,-1.137
1162,10.028,-0.311,0.127,-2.855,-0.26,0.176
1212,10.011,-0.304,0.103,-3.298,1.481,-0.901
1262,9.994,-0.11,0.417,-3.221,1.626,-1.542
1312,10.114,-0.386,1.188,-3.092,0.908,-0.992
1362,9.906,-0.307,-0.01,-3.702,0.412,-0.137
1413,10.002,-0.546,0.201,-2.641,2.634,-1.298
1462,10.006,0.177,-0.184,-3.389,0.733,-1.557
1512,10.002,0.127,-0.417,-3.122,2.046,-0.985
1562,10.124,-0.548,1.176,-3.344,2.008,-1.824
1612,10.097,-0.273,0.448,-3.45,0.595,-3.55
1662,10.193,-0.299,1.121,-3.282,1.191,-2.779
1713,10.105,-0.067,0.235,-3.115,1.87,-3.198
1763,10.066,0.062,0.386,-3.115,1.939,-2.977
1813,10.059,0.132,0.41,-3.252,0.824,-2.71
1863,10.16,0.046,0.616,-3.183,0.542,-1.695
1913,10.114,0.263,0.501,-3.206,0.252,0.038
1964,10.093,0.034,0.484,-3.282,0.641,0.076
2013,9.975,0.079,0.481,-3.13,0.725,1.832
2063,10.117,-0.055,0.529,-3.023,-0.244,3.115
2113,10.119,-0.673,0.4,-3.366,-1.0,0.985
2163,10.076,-0.292,0.271,-3.298,2.244,-1.168
2213,10.05,-0.091,0.659,-2.931,2.748,-1.008
2264,10.069,-0.216,0.956,-3.313,-0.084,-1.527
2313,10.893,-0.292,0.187,-4.084,-1.878,-1.924
2363,9.491,-0.254,0.546,-3.534,1.168,-0.992
2413,9.563,-0.295,0.491,-4.023,0.053,-2.557
2463,11.367,0.196,0.477,-3.954,2.389,-0.672
2513,9.056,-0.673,0.951,-3.939,1.237,0.847
2564,10.064,-0.326,0.163,-4.351,0.458,0.122
2613,9.012,-0.369,0.941,-3.656,1.809,-0.794
2663,9.494,-0.52,0.113,-3.595,0.863,-1.802
2713,11.597,-0.05,0.889,-3.985,1.061,-0.275
2763,10.117,-0.266,0.479,-3.298,-0.802,-0.55
2813,10.076,-0.263,0.496,-3.206,-0.092,-0.901
2864,10.181,-0.266,0.774,-3.328,-0.298,-0.771
2913,10.071,-0.12,0.321,-3.267,-1.382,-0.58
2963,10.038,-0.405,0.287,-3.107,1.412,-1.122
3013,10.064,-0.002,0.438,-3.031,3.267,-0.809
3063,10.081,-0.28,0.685,-3.443,2.42,-1.168
3113,9.997,0.146,0.783,-3.13,-0.443,-1.466
3164,9.982,-0.369,0.342,-3.214,0.916,-1.435
3214,10.047,-0.481,0.656,-3.26,0.916,-1.344
3264,10.035,0.022,0.302,-3.687,-0.802,-1.634
3314,10.09,0.829,0.735,-3.16,2.313,-0.725
3364,9.982,-0.723,0.742,-3.198,1.267,-2.061
3415,10.069,-0.184,0.354,-3.115,-0.542,-0.26
3464,10.114,0.163,0.702,-3.206,2.015,-0.863
3514,10.057,-0.575,0.656,-3.282,0.29,-1.756
3564,10.076,0.053,0.158,-3.298,1.015,0.229
3614,10.088,-0.489,1.085,-2.824,1.84,-1.107
3664,10.05,-0.096,0.333,-3.16,-2.282,-2.214
3715,10.097,-0.237,0.144,-3.733,5.389,-0.687
3764,10.035,-0.759,0.141,-3.427,-0.26,-1.71
3814,10.076,-0.457,2.11,-3.282,-0.763,0.748
3864,10.141,1.2,-1.13,-4.038,-2.405,-4.504
3914,9.942,0.707,0.247,-2.84,2.26,0.328
3964,9.947,-1.966,1.94,-1.695,-0.779,-4.557
4015,9.899,-0.093,-1.351,-3.809,4.962,-7.031
4064,8.112,0.958,-0.438,-0.992,-2.824,4.763
4114,10.411,-0.362,0.951,20.42,20.42,8.351
4164,10.004,-0.671,2.292,3.244,1.397,5.275
4214,9.93,-1.31,1.839,13.321,-10.0,3.107
4264,9.887,-1.169,0.307,29.527,-15.038,-6.0
4315,9.875,-0.714,0.228,-13.809,-5.122,-4.824
4364,10.061,0.06,0.069,-20.763,-0.115,-7.359
4414,10.05,-0.472,0.546,-3.618,3.328,-0.336
4464,9.985,0.031,0.778,-4.298,-0.565,1.626
4514,10.133,0.139,0.01,-1.382,0.58,1.481
4564,10.009,-0.788,0.584,-4.855,2.107,0.656
4614,10.112,-0.223,0.453,-15.229,2.786,-2.473
4664,9.968,-0.841,0.721,-30.221,2.504,-1.595
4714,10.093,0.457,0.278,-52.359,5.321,3.282
4764,10.04,-0.558,-0.038,-82.359,13.137,4.802
4814,9.76,-0.223,1.329,-39.649,5.412,1.221
4865,10.191,-0.584,0.369,-5.481,-2.023,1.855
4914,9.911,-0.821,0.402,-3.107,-0.947,0.084
4964,10.16,-0.575,0.374,-4.863,1.237,0.13
5014,10.05,-0.536,0.829,-3.504,-0.618,-3.885
5064,10.121,-0.244,0.577,4.817,-0.779,-1.695
5114,10.04,-0.481,0.39,19.137,-1.626,-1.908
5165,10.073,-0.251,0.383,30.191,-1.954,-1.771
5214,10.057,-0.35,0.687,23.58,0.618,-2.641
5264,10.078,-0.369,0.771,-5.87,3.397,-0.87
5314,10.119,-0.438,0.666,-4.206,0.153,-0.931
5364,10.203,-0.429,0.582,-2.855,1.412,-3.893
5414,10.152,-0.259,0.738,-6.725,0.542,-3.679
5465,10.028,-0.206,0.735,-15.13,2.145,-3.878
5514,10.09,-0.292,1.116,-3.237,-1.389,-0.725
5564,10.09,0.357,0.905,6.924,-1.954,1.29
5614,10.004,-0.673,0.398,-5.977,0.748,0.542
5664,10.126,0.029,0.644,-5.924,2.496,1.542
5714,10.164,-0.491,-0.168,17.763,-0.855,-1.588
5765,10.038,-0.426,0.532,31.267,1.084,-4.855
5814,10.16,-0.216,1.164,-7.153,4.359,1.45
5864,10.121,-0.232,1.102,-3.74,0.359,-0.099
5914,10.148,-0.304,0.884,-3.305,-2.557,-1.947
5964,10.088,-0.608,0.532,-6.893,-3.473,-1.366
6014,10.112,-0.101,0.457,-5.756,1.206,-1.855
6065,10.148,-0.402,0.901,0.649,-0.466,1.756
6115,10.131,-0.596,1.152,2.672,-3.992,-3.405
6165,10.105,-0.031,-0.05,-14.298,-0.87,-1.855
6215,10.069,-0.331,0.608,2.366,0.603,-0.672
6265,10.042,-0.398,0.431,-4.183,2.0,-2.618
6316,10.121,-0.522,0.41,-1.137,2.145,-1.931
6365,10.097,-0.048,0.625,-3.802,2.099,-2.145
6415,10.148,-0.275,0.455,-3.0,3.038,0.794
6465,10.117,0.189,0.069,0.275,7.023,0.58
6515,10.169,-0.429,0.479,34.649,7.084,4.527
6565,9.963,-0.884,0.34,69.389,4.069,-0.092
6616,10.232,-0.824,0.079,70.718,2.595,-8.656
6665,10.433,0.56,1.645,42.023,6.55,-5.947
6715,10.44,0.623,1.554,13.214,-0.809,-6.053
6765,9.913,1.049,1.233,-5.443,-10.977,0.42
6815,10.126,0.055,0.889,-0.977,-12.962,5.542
6865,11.185,-0.295,-1.609,-3.763,-4.565,-11.405
6916,10.011,1.748,0.769,-3.267,6.656,2.328
6965,9.532,-2.802,0.218,-2.29,3.802,5.802
7015,10.097,0.915,1.547,-2.962,2.962,-6.466
7065,10.526,-0.98,0.877,-3.458,-4.771,4.336
7115,10.114,0.719,0.342,-3.145,-2.534,-6.29
7165,10.275,0.055,-0.481,-3.191,3.015,3.076
7216,10.05,-0.012,1.207,-2.939,6.015,-1.298
7265,10.045,-0.893,0.898,-3.153,0.71,-0.847
7315,10.018,-0.17,0.994,-3.191,-3.489,-1.718
7365,9.987,0.084,-0.263,-3.336,-0.679,-2.863
7450,10.148,-0.041,1.166,-3.13,3.16,-1.053
7499,10.114,-0.867,0.903,-3.176,-0.985,-2.29
7550,10.035,-0.407,-0.101,-3.176,-1.794,-1.374
7600,10.023,0.077,0.565,-3.321,3.252,0.878
7649,10.188,-0.014,1.14,-3.145,1.45,-1.458
7699,10.126,-0.321,0.747,-3.275,-1.45,-1.885
7749,10.176,-0.122,0.069,-3.29,1.527,-1.374
7799,9.908,-0.484,0.788,-3.053,2.397,-0.527
7849,10.16,-0.407,0.872,-3.191,-0.489,-1.031
7900,10.246,-0.237,0.213,-3.191,-0.733,-0.45
7951,10.038,-0.113,0.642,-3.107,1.977,-0.076
8000,12.157,-19.62,9.027,-50.618,-22.702,-33.687
8050,9.544,3.133,0.134,-2.008,-10.122,-33.366
8100,9.709,2.532,-0.683,1.595,-19.397,-6.542
8151,9.568,1.209,-1.514,5.374,-9.802,10.084
8200,10.03,-0.081,-0.038,13.137,1.282,13.687
8250,11.803,-0.783,0.156,61.71,4.031,-1.679
8300,12.243,-0.508,1.882,-3.603,-1.702,-16.359
8350,12.203,-0.534,1.717,-11.718,-22.878,-31.939
8400,11.738,0.247,1.475,-1.183,-39.061,-46.832
8451,10.689,1.981,0.841,-53.527,-51.473,-37.802
8500,9.987,1.926,-1.061,-46.71,-48.0,-25.588
8550,9.345,2.203,-2.529,-48.649,-29.145,-7.695
8600,9.3,1.832,-1.552,-11.573,-8.779,-1.45
8650,8.72,1.7,-1.562,-26.992,2.817,8.153
8700,8.9,1.739,-1.574,-33.076,13.053,13.519
8751,8.569,0.843,-1.562,-44.42,21.046,15.389
8800,9.056,1.478,-0.225,-27.527,20.115,12.489
8850,9.623,1.219,-1.164,-39.489,0.504,3.412
8900,9.173,1.248,-0.735,-50.435,7.244,12.382
8950,9.626,1.269,-0.805,-29.466,6.519,7.794
9000,9.753,1.095,-0.75,-28.145,4.336,4.473
9051,9.614,1.494,-0.606,-26.0,3.321,2.908
9100,9.673,1.348,-0.651,-21.489,4.153,3.878
9153,9.616,1.387,-0.893,-24.496,7.328,7.267
9203,10.085,1.198,-0.953,-11.977,12.336,7.206
9253,10.193,0.869,-0.625,-3.313,15.313,5.031
9304,9.97,0.91,-0.105,-2.427,14.145,2.214
9353,10.155,1.035,-0.093,-7.641,9.115,2.237
9403,9.858,1.291,0.093,-16.229,3.87,5.481
9453,10.117,0.817,1.423,-16.542,4.534,6.13
9503,9.784,1.214,0.548,-10.916,3.0,5.824
9553,9.834,0.448,-0.86,8.313,9.443,1.183
9604,9.604,1.526,0.618,-1.649,6.153,4.008
9653,9.944,0.999,-0.125,-15.031,-3.069,7.252
9703,10.064,0.572,-0.314,-2.664,-3.206,4.794
9753,10.399,1.214,0.556,-6.42,-9.29,4.634
9803,9.925,0.836,-0.383,-24.664,-15.206,7.137
9853,10.493,0.52,-0.11,-29.901,-14.649,4.962
9904,10.009,-0.122,-0.647,1.29,-8.847,-2.832
9953,9.951,0.513,-0.084,-0.985,-3.931,-8.275
10003,9.499,0.879,-0.18,-14.26,-1.901,-6.069
10053,10.351,0.707,-0.891,-33.519,6.969,-0.786
10103,10.418,0.994,0.592,0.458,16.412,2.267
10153,8.55,-0.005,-1.76,-14.664,17.214,5.794
10204,10.909,2.062,1.006,102.076,17.298,-0.26
10253,11.118,0.431,1.657,-13.443,12.855,22.397
10303,10.888,0.333,1.712,-26.298,0.969,26.55
10353,9.97,-1.415,0.68,-61.573,-17.412,24.031
10403,10.744,-0.326,0.213,-45.656,-15.695,16.084
10454,11.206,-0.345,0.968,26.756,-16.656,9.42
10504,9.714,0.244,-1.128,175.084,-26.443,6.809
10553,10.414,0.333,-2.021,113.557,6.748,22.771
10603,9.57,-1.308,-0.51,42.282,23.412,15.542
10653,8.634,-0.719,-0.366,-9.641,32.267,2.847
10703,7.911,-1.945,2.654,-62.168,15.443,-5.626
10754,8.272,-2.445,0.462,-25.092,13.229,-5.748
10804,8.55,-6.95,-5.338,-16.13,18.16,-5.771
10854,12.193,1.985,-0.249,39.962,26.069,-16.74
10904,9.889,-0.362,1.794,37.656,1.695,-11.183
10954,10.157,-1.494,0.663,-47.168,-4.374,-11.992
11004,8.699,-0.836,0.85,-44.672,-9.168,-17.313
11055,8.694,-0.331,-0.548,-15.084,0.748,-15.893
11104,8.33,-0.22,0.448,20.763,6.55,-9.947
11154,10.09,-0.165,0.774,21.031,7.763,-1.191
11204,11.4,0.007,-0.022,22.069,-2.794,-3.656
11254,10.255,0.115,1.645,20.061,-9.008,-1.336
11304,10.255,-0.34,0.611,21.962,-11.008,5.672
11355,10.39,-0.723,0.73,18.588,-7.176,4.534
11404,10.397,-0.465,0.01,13.641,0.214,2.115
11454,10.895,-0.493,1.035,28.969,0.382,1.588
11504,11.695,-2.096,0.623,-41.321,7.168,1.908
11554,10.797,-0.62,1.02,-5.992,7.16,3.679
11604,10.416,-0.148,1.315,-21.924,12.496,6.405
11655,8.749,-0.398,0.984,40.305,21.634,6.328
11704,9.542,-0.237,0.469,-9.802,24.939,2.412
11754,6.486,0.146,0.218,30.893,35.969,-1.344
11804,5.006,0.228,1.897,40.733,27.336,-3.74
11854,8.55,-0.012,0.833,43.344,18.702,-5.664
11905,9.264,0.79,2.287,70.183,-1.275,-12.122
11955,8.586,-0.608,2.749,60.473,-27.328,-0.282
12004,10.502,1.018,0.987,22.145,-38.366,6.382
12054,13.604,-2.041,1.171,13.534,-29.626,-7.405
12104,11.29,-0.395,0.915,-6.611,-34.305,-15.229
12154,12.332,0.503,0.623,-26.42,-31.328,-19.84
12205,10.282,0.946,0.886,32.198,-28.763,-2.947
12255,11.063,-0.017,-0.352,25.977,-15.45,1.618
12305,11.142,-0.216,1.183,17.481,-5.366,2.42
12355,11.245,0.295,0.582,1.038,-2.305,-0.237
12405,8.335,-0.043,1.236,-21.573,15.405,-13.679
12455,9.309,0.678,0.692,-2.405,5.947,-7.252
12506,10.136,0.752,-0.41,-15.595,8.924,-0.718
12555,10.1,0.019,0.256,9.817,14.145,0.023
12605,10.267,-0.204,0.963,30.115,18.076,-3.038
12655,9.978,0.46,0.354,-13.901,7.489,-1.855
12705,10.15,0.366,0.438,-18.679,11.046,-3.588
12755,10.038,0.321,1.643,-4.26,11.893,-1.71
12806,9.92,0.757,1.157,-54.527,-1.366,-2.603
12855,10.121,-0.031,1.353,-81.359,-8.695,-3.924
12905,10.028,-0.498,-0.539,-73.076,-0.718,-8.908
12955,9.853,0.541,0.474,19.237,16.519,-7.176
13005,10.109,0.18,0.287,6.504,23.45,0.84
13056,10.093,-0.833,1.308,1.137,8.252,-2.504
13106,9.635,0.86,2.038,-43.382,-0.145,-11.878
13155,10.157,0.695,0.146,4.145,5.588,-2.282
13205,9.791,0.886,1.564,46.122,13.489,8.389
13255,10.088,0.896,1.408,33.779,12.084,11.817
13305,10.186,-0.055,1.403,-15.832,7.718,3.756
13356,9.997,1.128,2.22,-49.115,3.122,1.168
13406,4.357,-7.3,3.116,4.183,-42.55,72.267
13455,9.503,1.511,2.424,-11.351,-0.321,11.405
13505,10.066,-1.478,1.811,-80.908,-10.458,-1.191
13555,9.733,0.139,3.303,-40.496,-23.489,0.076
13605,10.684,-1.356,-0.656,11.084,-33.893,7.198
13656,10.787,-1.772,-2.371,-3.229,-10.969,-10.443
13705,9.321,-0.798,-0.685,9.87,13.427,-14.435
13755,9.879,1.023,0.299,-14.779,22.664,-14.206
13805,9.475,1.159,4.239,21.412,15.794,-3.198
13855,9.702,0.287,0.934,-2.985,0.725,7.282
13905,10.998,-4.572,-2.347,38.359,5.359,0.664
13956,9.961,-0.225,1.435,85.336,8.542,-6.985
14005,10.351,0.297,-1.085,22.374,2.634,-6.183
14055,10.414,1.157,2.668,-63.16,4.313,-7.038
14105,9.762,0.017,1.358,-79.641,-1.214,-6.664
14155,8.692,2.215,2.896,-47.595,1.977,-3.473
14205,9.891,0.544,2.453,-1.405,-4.16,9.405
14256,9.774,-0.074,1.787,0.908,-10.977,9.405
14305,10.311,-1.063,1.427,-46.84,-27.344,3.26
14355,10.03,1.593,-0.333,-1.427,-16.496,6.435
14405,10.529,-2.436,-2.668,-3.595,-2.718,10.092
14455,9.494,0.412,1.815,-4.221,11.519,-4.489
14505,10.066,0.939,1.983,-3.267,3.573,4.252
14556,9.942,-1.823,1.061,-3.634,-7.298,3.282
14605,10.239,-0.604,-0.319,-3.244,1.885,-3.26
14655,10.081,-1.339,0.819,0.282,5.527,-7.748
14705,9.899,2.558,-0.319,25.702,7.328,-12.405
14755,10.016,0.987,0.046,-26.389,1.672,-17.641
14806,9.906,1.298,1.377,-36.252,2.458,-3.115
14856,9.64,3.056,1.959,-8.565,-4.351,17.756
14905,11.252,-2.443,1.904,-6.29,-12.618,26.221
14955,10.358,-1.511,0.52,-3.565,6.344,-12.191
15005,9.925,1.059,1.784,-2.458,-6.649,-3.55
15055,10.114,0.103,-1.047,-3.366,0.603,-0.817
15106,10.272,0.036,0.422,-3.603,6.405,7.481
15156,10.114,-1.011,0.757,-4.115,4.733,0.725
15206,9.877,-0.647,1.954,-2.962,-3.725,-4.435
15256,10.069,0.34,0.141,-3.122,-3.672,-3.015
15306,10.385,-0.661,0.402,8.954,-0.931,-1.954
15356,10.09,-0.525,1.231,52.832,2.664,-0.695
15407,10.327,0.651,0.45,30.763,-5.534,3.405
15456,9.913,-2.915,-0.151,-1.924,1.466,-0.733
15506,10.04,0.146,0.364,-1.817,2.924,2.824
15556,9.889,0.244,-0.05,-3.802,5.656,-0.718
15606,10.536,-0.563,0.544,0.153,6.817,-5.183
15656,9.578,-0.319,2.833,-3.229,-1.275,-0.847
15707,9.906,-1.317,-1.468,-2.916,-4.244,-3.779
15756,10.215,0.853,1.03,-2.725,1.382,-3.458
15806,9.982,-0.374,0.709,-3.542,3.092,2.0
15856,10.109,-0.627,0.975,-3.328,1.153,-0.695
15906,10.047,-0.072,0.486,-3.221,-0.595,-3.366
15956,10.095,0.319,0.513,-3.641,1.092,-0.244
16007,10.052,-0.333,0.685,-3.466,1.855,1.168
16056,10.145,-0.501,0.647,-3.45,0.634,-0.191
16106,10.014,-1.073,0.829,-2.885,-0.313,-4.015
16156,10.265,-0.86,0.266,-5.939,-4.298,-16.176
16206,9.956,2.579,0.036,-0.908,1.626,-3.023
16257,10.37,1.061,0.702,-7.771,5.344,15.176
16307,9.638,-2.251,2.285,-3.947,-7.74,9.504
16356,9.997,1.018,-1.128,-2.267,0.511,-0.122
16406,9.798,0.01,-1.047,10.908,6.649,9.198
16456,9.781,-2.076,3.825,-9.71,1.221,-4.267
16506,10.026,-1.818,-1.478,-3.099,-7.29,-16.351
16557,9.563,2.692,0.381,5.252,4.084,-0.344
16607,9.614,2.73,2.45,-14.183,2.031,-8.0
16657,10.038,0.546,1.265,-18.099,2.611,-1.534
16707,10.358,-0.218,0.45,-32.863,-0.45,0.992
16757,9.616,0.069,-0.002,-3.221,3.13,0.557
16807,10.018,-0.584,1.473,-3.046,2.046,-0.496
16858,10.095,-0.275,0.192,-3.153,0.115,-2.092
16907,9.975,-0.18,0.936,-3.053,0.313,-0.969
16957,10.162,-0.06,0.232,-3.084,-0.321,-0.756
17007,9.999,-0.405,0.833,-3.191,1.931,0.137
17057,10.107,-0.347,0.666,-3.176,0.473,-1.573
17107,10.085,-0.34,0.556,-3.191,0.267,-1.504
17158,10.172,-0.022,0.678,-3.26,0.656,-1.389
17207,10.093,-0.18,0.568,-3.221,0.71,-0.702
17257,10.052,-0.386,0.719,-3.305,1.053,-0.565
17307,10.04,-0.292,0.527,-3.389,-0.26,-0.878
17357,9.978,-0.268,0.62,-3.29,1.092,-0.893
17408,10.066,-0.201,0.546,-3.191,0.435,-0.901
17458,9.999,-0.093,0.651,-3.321,1.061,-0.771
17507,9.992,-0.208,0.671,-3.168,0.305,-0.939
17557,10.076,-0.273,0.747,-3.405,-0.832,-0.84
17607,10.181,-0.237,0.077,-3.321,1.0,-1.924
17657,10.081,-0.046,0.671,-3.489,2.534,0.366
17708,10.061,-0.323,0.618,-3.427,1.221,-0.74
17758,9.973,-0.117,0.838,-3.366,1.397,-0.519
17807,10.047,-0.342,0.719,-3.29,-1.702,-0.649
17857,10.061,-0.115,0.364,-3.328,0.389,1.298
17907,10.095,-0.69,0.752,-3.168,0.542,-0.695
17957,10.097,0.098,0.263,-3.405,-0.42,-5.527
18008,10.15,0.223,1.013,-0.359,-0.42,0.42
18057,9.798,0.046,0.077,4.313,-0.779,3.893
18107,9.966,-1.059,1.054,-3.13,4.069,-0.885
18157,10.047,-0.776,-0.278,-3.29,-2.611,-3.55
18207,10.162,0.532,1.061,-3.328,0.969,-1.809
18257,9.949,-0.448,-0.426,-3.511,2.55,1.863
18308,10.117,-0.673,1.372,-3.26,-0.298,0.145
18357,10.081,-0.062,0.407,-3.267,0.595,-4.511
18407,10.014,0.065,0.177,-3.244,-0.237,-0.382
18457,10.234,-0.137,0.872,-3.168,2.58,1.275
18507,9.99,-0.982,0.455,-3.221,0.298,-2.29
18557,9.97,-0.352,-0.17,-3.473,-1.359,-2.321
18608,10.15,-1.365,0.948,-3.344,1.908,-6.252
18657,10.208,0.211,0.893,-2.847,-6.595,-8.008
18707,9.882,0.74,-1.059,-3.649,1.489,-1.282
18757,10.251,-0.927,1.423,-3.557,4.137,3.137
18807,10.138,-0.381,0.889,-3.0,-1.366,-6.916
18857,9.911,0.558,-0.58,-3.26,0.351,-0.344
18908,10.081,0.043,0.996,-3.298,3.58,2.282
18957,9.958,-0.541,0.802,-3.382,1.58,2.206
19007,10.093,-0.371,0.759,-3.26,-1.015,-2.809
19057,9.997,0.11,-0.01,-3.038,-0.939,-2.198
19107,10.057,-0.144,0.532,-3.313,4.107,0.229
19158,10.107,-0.319,0.922,-3.183,-0.687,-1.481
19208,10.078,-0.23,0.113,-3.153,0.42,-2.321
19257,10.114,0.065,0.469,-3.511,3.076,-1.053
19307,10.167,-0.067,0.723,-3.038,1.496,0.817
19357,10.121,-0.065,0.256,-3.328,1.336,2.679
19407,10.129,-0.113,0.146,-3.366,3.924,3.092
19458,10.167,-0.577,1.569,-3.298,1.198,1.725
19508,10.059,-0.311,0.383,-3.275,0.336,-0.344
19558,10.133,-0.374,0.795,-3.321,-1.015,-2.145
19608,10.107,-0.541,0.702,-3.221,-2.092,-3.649
19658,10.069,0.072,0.34,0.641,-1.947,-4.771
19708,10.061,0.627,0.036,-3.733,5.084,2.397
19759,10.148,-0.915,1.176,-3.397,2.649,2.985
19808,10.052,-0.271,0.175,-3.336,0.389,0.885
19858,10.143,-0.196,0.534,-2.916,2.588,1.885
19908,10.018,-0.17,0.683,-2.893,1.382,3.672
19958,10.016,-0.429,0.582,11.763,0.542,1.214
20008,10.097,-0.616,0.771,15.847,-0.763,0.679
20059,10.126,-0.357,0.544,1.053,0.275,1.756
20108,10.066,-0.601,0.69,-12.29,0.664,2.802
20158,10.026,-0.611,0.606,-11.771,-0.328,1.214
20208,10.052,-0.556,0.548,-11.954,0.015,0.473
20258,10.109,-0.457,0.695,-9.733,-1.267,-0.275
20308,10.107,-0.35,0.546,-7.015,-3.237,-0.282
20359,10.124,0.297,0.307,-11.504,-1.053,0.962
20408,10.004,-0.841,-0.747,-10.069,7.58,-0.298
20458,10.38,-0.34,-0.287,20.221,13.16,-0.58
20508,11.657,-0.45,0.026,48.015,20.817,-3.687
20558,12.339,-0.52,1.334,47.13,18.87,-9.992
20609,12.871,-0.556,1.145,-10.359,11.908,-14.992
20659,12.332,0.125,0.747,-10.496,8.954,-16.023
20708,11.642,0.347,0.24,6.344,13.107,-9.282
20758,11.369,0.335,0.103,33.443,21.55,-3.366
20808,11.043,0.115,0.551,48.397,30.519,0.565
20858,10.473,0.465,0.244,37.389,35.443,5.298
20909,10.924,-0.656,0.939,33.015,39.351,1.084
20959,10.258,0.354,1.13,11.847,36.489,-0.58
21009,9.527,0.862,1.542,42.542,26.267,5.649
21059,9.525,0.522,1.447,2.053,19.282,14.321
21109,9.647,-0.228,0.857,11.748,14.618,14.42
21159,9.149,-0.366,0.639,10.863,16.198,11.137
21210,8.991,-0.812,1.214,-2.42,17.084,5.626
21259,9.099,-0.393,2.297,31.55,4.634,0.176
21309,9.611,0.877,-3.197,5.076,5.565,-0.008
21359,9.575,-0.208,3.638,-17.489,-14.924,2.832
21409,9.592,0.105,2.402,21.275,-41.45,6.031
21459,10.277,-1.001,2.673,29.29,-60.29,7.489
21510,10.318,-0.546,1.612,40.489,-64.527,6.107
21559,9.628,-0.817,1.229,40.061,-60.511,7.687
21609,9.005,-1.006,0.812,41.802,-53.45,4.595
21659,8.636,-0.328,0.546,36.374,-46.023,7.221
21709,8.955,-0.156,0.505,42.031,-36.672,11.794
21760,9.434,-0.726,0.438,31.687,-26.412,11.595
21810,9.987,-0.656,0.29,40.061,-16.756,8.275
21859,11.194,-0.235,0.194,30.947,-4.908,4.969
21909,10.943,-0.553,0.783,49.481,-0.015,2.863
21959,10.727,-0.738,0.987,49.733,1.061,0.771
22009,9.137,-1.655,0.532,33.031,3.588,-10.344
22060,9.151,-0.342,0.333,-0.481,12.679,-19.794
22110,9.276,0.29,0.896,-1.626,20.092,-16.405
22159,8.991,0.35,0.848,2.786,25.481,-10.26
22209,9.137,0.196,0.91,15.603,29.16,-4.412
22259,9.118,-0.359,0.941,10.542,31.099,-3.565
22309,9.142,-0.707,1.078,-5.198,30.29,-7.084
22360,9.999,-0.51,1.784,-43.847,26.42,-11.573
22409,11.544,0.139,2.589,-64.924,14.511,-10.695
22459,11.901,-0.048,1.918,-70.435,4.55,-6.55
22509,11.815,-0.342,1.221,-99.573,7.573,-8.168
22559,11.194,0.041,1.147,-73.74,13.13,-5.588
22609,10.758,-0.45,1.88,-62.504,13.878,-5.527
22660,10.05,-0.299,2.184,-33.481,6.328,-6.527
22709,9.58,-0.544,1.851,-33.573,-0.42,-7.687
22759,8.96,-0.68,1.075,-31.237,-2.939,-11.099
22809,9.192,-0.651,0.891,-30.344,-0.687,-14.275
22859,9.573,-0.752,0.714,-24.748,0.84,-14.466
22909,9.879,-0.556,0.606,-18.374,4.374,-14.863
22960,10.72,0.153,1.332,-17.443,0.527,-10.664
23009,10.624,0.467,1.255,-11.519,-1.992,-4.878
23059,11.372,0.132,1.253,7.275,-7.153,2.603
23109,11.489,-0.604,0.369,0.45,-3.519,0.26
23159,12.219,-0.038,1.631,4.893,-1.595,-2.634
23209,11.309,-0.237,1.593,4.519,-12.229,-1.321
23260,10.758,0.11,1.787,0.504,-19.725,-3.046
23309,10.751,0.323,1.679,12.305,-30.282,1.038
23359,9.889,-0.23,0.618,23.901,-32.542,2.695
23409,9.913,-0.153,0.601,21.427,-28.183,1.725
23459,9.264,-0.881,-0.311,18.855,-22.802,-0.557
23510,9.726,-0.249,0.122,-3.473,-13.779,-7.55
23560,9.278,0.314,-0.048,7.389,-11.962,-4.641
23609,9.175,0.125,0.651,-3.336,-12.023,-4.099
23659,9.333,-0.687,0.249,10.527,-15.397,-6.74
23709,9.894,-0.299,0.357,-25.847,-14.504,-12.878
23759,9.468,-0.857,-0.034,-26.29,-12.351,-17.298
23810,9.499,0.546,0.467,-40.328,-9.962,-17.527
23860,8.912,0.22,0.438,-26.122,-12.473,-9.672
23910,8.984,0.699,0.769,-36.733,-14.573,-5.26
23960,8.926,-0.158,0.448,-10.611,-17.0,-0.29
24010,8.601,-0.41,0.086,-29.191,-14.389,-2.145
24060,8.756,0.381,-0.026,-19.412,-9.817,-0.053
24111,8.457,0.177,-0.105,-7.718,-4.55,6.099
24160,8.799,0.084,0.057,2.412,-0.802,10.802
24210,8.89,-0.496,-0.017,-7.298,3.954,9.71
24260,9.084,-0.148,-0.005,-10.115,8.435,7.931
24310,9.024,0.376,-0.304,-3.618,11.229,10.45
24360,9.293,0.122,0.932,3.244,10.336,12.603
24411,10.083,-0.093,0.125,-27.634,8.725,10.748
24460,10.054,0.493,0.589,-6.092,9.153,11.374
24510,10.706,0.072,0.168,-21.55,11.252,12.802
24560,10.814,0.599,0.558,-9.214,13.389,13.366
24610,10.835,0.139,0.58,-1.427,12.771,16.687
24660,10.26,-0.316,0.467,0.527,13.214,12.908
24711,10.301,-0.398,0.69,-4.214,12.076,6.595
24760,10.346,-0.297,0.469,-20.779,9.954,1.542
24810,10.643,0.098,0.457,-24.733,10.191,-1.076
24860,10.579,0.28,0.505,-10.756,11.313,-0.519
24910,10.581,-0.22,0.333,-10.878,14.366,-1.099
24961,10.445,-0.093,0.812,-10.214,13.481,-1.153
25011,10.282,-0.587,0.836,-12.16,12.374,-6.099
25060,9.911,-0.005,0.742,-18.931,9.336,-6.718
25110,10.224,0.072,0.704,9.824,8.321,-5.366
25160,10.064,-0.144,0.853,6.733,6.626,-3.672
25210,9.894,0.022,0.723,5.244,5.336,-3.832
25261,10.05,-0.62,0.493,-3.748,6.87,-5.176
25311,9.978,0.16,0.891,-0.344,6.29,-5.405
25361,10.109,-0.12,0.759,4.29,5.229,-3.817
25411,10.129,-0.139,1.356,1.885,2.634,-3.718
25461,10.152,-0.192,1.118,-0.084,-1.824,-3.916
25511,9.736,-0.074,0.901,-2.229,-1.641,-5.405
25562,9.836,-0.199,0.85,-3.695,-1.0,-6.809
25611,9.812,0.371,0.989,-7.466,1.412,-6.031
25661,10.011,0.395,0.848,-4.443,2.252,-1.748
25711,9.872,0.261,0.939,-5.939,3.557,0.824
25761,10.085,0.141,0.96,-3.71,4.511,2.229
25811,10.162,0.105,0.85,-9.466,3.573,2.863
25862,10.406,-0.386,1.104,-19.611,3.542,-1.679
25911,10.38,0.069,0.721,-18.489,0.794,-3.84
25961,11.295,-0.105,1.042,-11.916,2.145,-6.985
26011,10.725,0.041,1.111,-9.962,0.58,-8.008
26061,10.294,0.323,1.099,-24.557,-1.58,-8.679
26112,10.124,0.388,0.489,-8.008,-1.817,-5.038
26162,9.599,0.73,0.776,-1.046,0.321,-0.405
26211,9.635,0.12,0.764,3.206,2.214,3.527
26261,9.57,0.522,1.32,-5.076,0.053,7.183
26311,9.697,-0.45,0.491,-6.198,1.756,7.237
26361,9.985,-0.213,0.994,-14.84,3.389,2.763
26412,10.002,-0.273,0.443,-16.611,5.794,-3.42
26462,10.03,0.206,0.908,-13.733,6.443,-6.672
26511,10.105,0.426,1.042,-7.496,3.405,-6.832
26561,10.121,0.484,1.38,-1.221,-3.679,-6.794
26611,9.908,0.182,0.52,-9.489,-6.55,-8.023
26661,10.071,0.556,0.592,-4.206,-6.656,-10.374
26712,10.069,0.675,0.462,4.115,-4.427,-8.29
26761,10.579,0.874,0.745,7.16,-2.931,-2.244
26811,10.126,0.39,0.414,24.702,-0.542,0.588
26861,10.186,0.223,0.8,14.702,-1.863,1.87
26911,10.105,0.125,0.656,7.863,0.206,1.611
26961,10.057,0.096,0.776,14.817,-0.817,4.756
27012,10.421,0.204,0.867,24.321,0.107,6.641
27061,10.093,-0.096,0.879,-7.794,0.031,9.679
27111,10.706,-0.563,0.831,-7.397,-0.55,8.725
27161,10.445,-0.189,0.472,-5.076,-1.267,7.267
27211,10.488,-0.168,0.56,-4.435,1.786,8.122
27261,10.375,-0.137,0.354,-15.924,4.855,7.855
27312,10.186,-0.163,0.707,-13.641,7.061,10.588
27361,10.397,-0.321,0.671,1.008,5.84,9.641
27411,10.337,-0.527,1.183,18.481,3.588,5.748
27461,10.543,-0.117,0.913,-1.145,-2.695,3.733
27511,10.263,-0.604,0.503,4.298,-6.611,0.977
27561,10.368,-0.304,0.177,-6.45,-4.282,-2.71
27612,10.423,-0.383,0.345,3.305,-2.031,-5.908
27661,10.121,-0.314,0.479,-3.313,-2.557,-8.534
27711,10.138,-0.328,0.378,1.618,-4.351,-10.656
27761,9.956,-0.314,0.704,7.176,-7.985,-10.916
27811,9.958,-0.072,0.412,5.229,-9.916,-12.084
27862,9.719,-0.333,0.501,6.168,-11.107,-11.962
27912,9.973,0.158,0.057,3.817,-11.092,-13.649
27961,10.073,0.196,0.17,-1.969,-10.076,-9.435
28011,10.191,0.295,0.017,-4.427,-9.695,-6.565
28061,10.152,0.026,0.043,-5.809,-8.229,-3.443
28111,10.179,-0.036,0.081,-1.55,-8.389,-3.595
28162,10.337,0.189,-0.057,-0.534,-7.779,-1.985
28212,10.263,0.06,-0.24,2.664,-6.809,-0.832
28262,10.061,0.213,-0.402,9.145,-5.511,-0.26
28312,10.16,0.319,-0.58,9.412,-3.031,3.122
28362,10.16,0.359,-0.556,11.053,-0.908,5.725
28412,10.126,0.338,-0.659,14.13,1.107,7.626
28463,10.071,0.263,-0.723,17.45,3.58,9.802
28512,9.954,0.242,-0.678,19.336,6.855,12.061
28562,9.958,0.163,-0.711,20.489,10.0,14.328
28612,9.865,-0.019,-0.673,19.542,13.183,16.191
28662,9.774,-0.283,-0.548,16.321,15.473,17.321
28712,9.724,-0.599,-0.199,10.305,16.55,17.481
28763,9.726,-0.953,0.137,1.519,16.008,15.679
28812,9.748,-1.315,0.457,-9.496,13.603,12.656
28862,9.817,-1.554,0.838,-23.183,9.443,7.878
28912,9.846,-1.815,0.922,-38.237,4.092,2.237
28962,10.021,-1.859,0.956,-54.427,-1.603,-4.763
29012,10.038,-1.832,0.86,-69.908,-6.695,-12.458
29063,10.141,-1.703,0.678,-83.947,-10.893,-20.191
29112,10.315,-1.356,0.342,-94.947,-12.634,-27.374
29162,10.232,-0.855,0.101,-101.832,-12.534,-33.527
29212,10.236,-0.295,-0.199,-103.824,-10.313,-37.13
29262,10.323,0.376,-0.371,-100.015,-7.0,-37.962
29313,10.215,1.03,-0.376,-90.26,-3.756,-35.458
29363,10.157,1.653,-0.302,-74.718,-0.847,-29.748
29412,10.066,2.124,-0.158,-54.641,0.832,-21.847
29462,9.932,2.441,-0.146,-30.321,1.252,-12.053
29512,9.774,2.718,-0.127,-3.519,0.557,-1.145
29562,9.626,2.649,-0.137,24.122,-0.214,10.206
29613,9.427,2.469,-0.242,50.733,-0.557,21.214
29663,9.451,2.065,-0.402,74.076,0.427,30.916
29713,9.264,1.483,-0.508,92.076,3.275,38.588
29763,9.293,0.776,-0.486,103.176,6.672,42.901
29813,9.293,-0.122,-0.381,105.725,10.115,43.908
29863,9.436,-0.972,-0.103,99.893,13.031,41.397
29914,9.494,-1.753,0.311,86.397,13.427,35.511
29963,9.733,-2.256,0.663,67.901,11.473,26.809
30013,9.978,-2.685,0.956,45.351,7.29,15.748
30063,10.131,-2.831,1.106,21.084,0.809,3.84
30113,10.255,-2.781,0.98,-2.595,-5.252,-8.015
30163,10.38,-2.498,0.723,-24.87,-10.519,-19.466
30214,10.39,-2.038,0.479,-43.977,-13.473,-29.252
30263,10.512,-1.609,0.122,-58.756,-14.122,-37.015
30313,10.409,-0.941,-0.256,-69.198,-12.221,-41.832
30363,10.411,-0.263,-0.481,-73.718,-8.626,-43.954
30413,10.217,0.319,-0.651,-72.183,-4.458,-43.092
30464,10.1,1.087,-0.659,-64.076,-0.053,-39.237
30514,9.925,1.554,-0.659,-50.214,3.595,-33.198
30563,9.817,1.899,-0.548,-31.718,5.985,-25.282
30613,9.573,2.163,-0.453,-9.527,7.427,-16.191
30663,9.446,2.261,-0.386,14.374,7.809,-7.092
30713,9.345,2.177,-0.192,39.145,7.176,1.206
30764,9.331,1.906,-0.287,62.244,6.618,8.153
30814,9.269,1.49,-0.165,82.069,5.901,13.573
30863,9.386,1.054,-0.036,97.672,5.237,16.84
30913,9.511,0.594,-0.148,108.962,4.634,18.489
30963,9.685,0.053,0.067,115.16,4.153,18.29
31013,9.867,-0.251,0.144,116.733,2.924,16.794
31064,10.026,-0.544,0.24,114.969,1.015,13.985
31113,10.179,-0.812,0.29,110.504,-1.252,10.687
31163,10.346,-0.939,0.127,103.634,-3.733,6.557
31213,10.452,-1.054,0.024,95.58,-5.725,2.527
31263,10.605,-1.183,-0.16,86.122,-6.893,-1.443
31313,10.531,-1.133,-0.393,76.168,-6.947,-5.252
31364,10.643,-1.233,-0.527,65.58,-5.702,-8.939
31413,10.452,-1.128,-0.594,55.0,-3.527,-12.672
31463,10.296,-1.111,-0.79,44.702,-0.45,-15.985
31513,10.232,-0.975,-0.913,34.947,3.122,-19.885
31563,10.026,-0.901,-0.908,26.527,6.725,-23.229
31613,9.856,-0.723,-0.735,20.176,9.924,-26.695
31664,9.69,-0.426,-0.484,16.42,12.023,-29.008
31713,9.602,-0.208,-0.213,16.084,12.802,-30.58
31763,9.508,0.196,0.146,19.099,11.099,-31.046
31813,9.441,0.563,0.412,26.321,7.87,-30.267
31863,9.482,0.913,0.704,37.321,2.992,-27.947
31913,9.59,1.289,0.666,51.824,-3.038,-24.076
31964,9.642,1.574,0.726,68.893,-9.786,-18.153
32013,9.669,1.708,0.529,87.527,-15.634,-11.076
32063,9.827,1.674,0.158,106.107,-19.74,-2.321
32113,9.875,1.586,-0.395,122.565,-21.305,7.153
32163,10.064,1.106,-0.81,135.382,-18.992,16.069
32214,10.117,0.505,-1.277,142.336,-13.55,22.405
32264,10.203,-0.228,-1.42,142.664,-5.038,25.344
32313,10.198,-0.872,-1.483,136.305,3.45,24.069
32363,10.26,-1.581,-1.38,123.214,11.824,18.557
32413,10.203,-2.163,-1.056,104.534,18.137,9.626
32463,10.1,-2.522,-0.719,82.344,21.985,-1.198
32514,9.99,-2.702,-0.235,58.389,23.084,-13.511
32564,9.86,-2.682,0.165,34.313,21.817,-25.733
32614,9.724,-2.35,0.438,12.863,19.191,-36.885
32664,9.645,-1.811,0.673,-4.336,15.733,-45.679
32714,9.59,-1.219,0.764,-16.069,12.069,-52.214
32764,9.535,-0.426,0.874,-20.084,8.466,-55.473
32815,9.429,0.388,1.035,-16.069,4.168,-55.557
32864,9.57,1.305,1.03,-4.275,-0.718,-52.145
32914,9.602,2.053,1.068,15.122,-6.847,-44.649
32964,9.832,2.69,0.79,40.237,-12.954,-33.84
33014,9.822,3.032,0.441,68.84,-17.771,-19.992
33064,9.999,3.07,-0.122,98.405,-20.084,-4.641
33115,9.968,2.754,-0.587,126.13,-18.359,10.511
33164,10.021,2.16,-1.157,149.275,-12.824,23.191
33214,10.097,1.43,-1.365,166.099,-3.519,32.26
33264,10.081,0.541,-1.437,174.893,7.336,36.275
33314,10.03,-0.347,-1.221,174.977,18.389,34.809
33364,10.035,-1.061,-0.719,166.893,26.573,28.649
33415,9.896,-1.696,-0.043,152.71,30.618,19.366
33464,9.923,-1.933,0.642,135.053,30.008,8.947
33514,9.841,-1.99,1.233,115.313,24.618,-1.634
33564,9.729,-2.069,1.83,95.481,15.863,-10.183
33614,9.705,-1.799,2.048,77.305,4.947,-17.382
33665,9.642,-1.581,2.177,61.618,-6.58,-22.71
33715,9.602,-1.334,1.928,48.885,-17.565,-26.473
33764,9.602,-0.999,1.631,39.183,-26.641,-29.0
33814,9.604,-0.656,1.08,32.84,-33.985,-30.573
33864,9.736,-0.4,0.412,29.389,-38.534,-30.626
33914,9.803,-0.122,-0.345,28.626,-39.618,-29.802
33965,9.925,0.151,-1.037,30.221,-37.191,-27.794
34015,10.038,0.352,-1.566,33.977,-31.817,-25.084
34065,10.191,0.505,-1.902,39.0,-23.939,-21.664
34115,10.203,0.544,-2.026,44.931,-14.908,-18.214
34165,10.39,0.594,-2.136,51.45,-5.725,-15.153
34215,10.215,0.635,-1.988,58.053,2.405,-12.26
34266,10.253,0.651,-1.693,64.763,9.466,-9.489
34315,10.193,0.647,-1.483,70.802,14.794,-7.031
34365,10.085,0.666,-1.226,76.832,18.618,-4.794
34415,9.958,0.604,-0.829,82.336,20.634,-2.878
34465,9.87,0.544,-0.45,87.321,21.328,-0.908
34515,9.635,0.513,-0.309,91.733,20.611,0.832
34636,9.432,0.16,0.089,97.687,16.099,4.031
34686,9.391,-0.101,0.187,96.908,13.832,4.305
34737,9.463,-0.431,0.316,93.702,11.298,3.672
34786,9.561,-0.73,0.479,87.931,8.069,1.924
34836,9.724,-0.932,0.606,79.794,4.802,-0.908
34886,9.824,-1.135,0.661,70.26,1.282,-4.924
34936,10.057,-1.334,0.625,59.687,-2.504,-9.855
34987,10.193,-1.37,0.546,49.26,-6.252,-15.191
35037,10.339,-1.255,0.489,39.916,-9.786,-20.824
35086,10.497,-0.992,0.292,33.298,-12.802,-25.74
35136,10.574,-0.685,0.206,29.153,-15.26,-29.573
35186,10.608,-0.29,0.002,28.069,-16.878,-31.366
35236,10.648,0.189,-0.247,30.809,-17.634,-31.237
35287,10.588,0.608,-0.467,36.924,-17.565,-28.908
35337,10.406,0.932,-0.62,46.382,-16.542,-24.634
35387,10.291,1.291,-0.996,57.992,-14.748,-18.641
35437,10.069,1.396,-1.176,71.496,-12.069,-11.405
35487,9.848,1.506,-1.447,85.267,-8.252,-3.817
35537,9.642,1.262,-1.665,97.87,-3.137,3.412
35588,9.436,1.035,-1.768,108.008,2.878,9.466
35637,9.247,0.551,-1.736,114.107,9.0,13.496
35687,9.06,0.074,-1.574,115.29,14.992,14.832
35737,9.036,-0.522,-1.142,110.71,19.397,13.656
35787,9.101,-0.889,-0.685,101.374,21.221,10.664
35837,9.216,-1.262,-0.216,87.656,21.046,6.168
35888,9.324,-1.595,0.364,71.527,18.519,1.069
35937,9.549,-1.705,0.695,54.847,13.924,-4.733
35987,9.767,-1.753,1.015,38.053,7.702,-10.87
36037,10.038,-1.569,1.116,22.992,0.359,-16.679
36087,10.241,-1.329,1.032,9.733,-6.695,-22.069
36137,10.423,-1.126,0.75,-0.466,-12.962,-26.397
36188,10.641,-0.723,0.362,-7.595,-16.947,-29.153
36237,10.603,-0.402,0.01,-11.458,-18.985,-30.214
36287,10.718,-0.022,-0.362,-12.557,-18.649,-30.321
36337,10.689,0.263,-0.695,-10.053,-16.321,-28.847
36387,10.608,0.582,-1.047,-4.969,-12.153,-25.885
36438,10.464,0.872,-1.312,3.321,-7.046,-21.992
36488,10.289,1.09,-1.478,13.588,-0.832,-17.191
36537,10.145,1.209,-1.617,25.351,5.496,-12.092
36587,9.935,1.178,-1.432,37.885,11.763,-7.359
36637,9.714,1.104,-1.334,50.794,16.985,-3.13
36687,9.499,1.006,-1.092,62.885,20.924,-0.145
36738,9.281,0.862,-0.723,74.382,22.977,1.626
36788,9.159,0.639,-0.326,84.069,22.969,2.443
36838,9.156,0.568,0.184,92.595,21.0,2.458
36888,9.214,0.472,0.52,100.084,17.366,2.229
36938,9.415,0.398,0.764,106.649,12.092,2.26
36988,9.535,0.383,0.975,112.16,6.214,3.13
37039,9.772,0.323,0.908,116.588,0.405,4.954
37088,9.839,0.22,0.762,119.611,-5.069,7.115
37138,10.236,-0.055,0.568,120.641,-9.344,9.55
37188,10.349,-0.326,0.376,118.901,-11.786,11.145
37238,10.481,-0.659,0.029,114.137,-12.473,11.328
37288,10.603,-1.03,-0.137,105.886,-11.878,9.863
37339,10.639,-1.432,-0.278,95.008,-10.573,6.321
37388,10.624,-1.691,-0.34,81.603,-8.809,1.0
37438,10.538,-1.906,-0.24,65.901,-7.55,-6.092
37488,10.466,-2.084,-0.323,49.565,-6.542,-14.458
37538,10.351,-2.093,-0.225,33.282,-6.176,-23.87
37588,10.095,-1.83,-0.199,18.557,-6.298,-32.832
37639,9.93,-1.468,-0.204,7.076,-6.634,-40.603
37688,9.745,-0.855,-0.347,0.198,-7.046,-45.863
37738,9.666,-0.132,-0.354,-0.901,-7.603,-48.626
37788,9.501,0.558,-0.354,4.939,-8.382,-48.511
37838,9.353,1.253,-0.496,17.557,-9.557,-45.168
37889,9.271,1.909,-0.647,36.473,-10.992,-39.023
37939,9.362,2.453,-0.814,60.351,-12.092,-29.794
37988,9.355,2.606,-1.279,86.092,-11.916,-19.038
38038,9.4,2.625,-1.712,111.985,-9.313,-6.74
38088,9.52,2.213,-2.122,134.87,-3.328,4.618
38138,9.551,1.638,-2.259,152.45,5.282,13.008
38189,9.616,0.901,-2.273,162.702,15.656,17.351
38239,9.726,0.017,-2.033,165.252,25.832,16.618
38289,9.774,-0.656,-1.49,160.42,34.13,11.71
38339,9.872,-1.174,-0.812,150.13,38.809,3.412
38389,9.863,-1.521,-0.146,136.397,39.214,-6.267
38439,9.923,-1.552,0.592,121.397,35.664,-16.198
38490,9.978,-1.411,1.25,107.824,27.779,-24.695
38539,10.035,-1.15,1.693,96.962,17.855,-31.595
38589,10.021,-0.678,1.851,89.71,5.435,-36.13
38639,10.021,-0.331,1.887,87.183,-7.275,-37.771
38689,10.006,0.134,1.619,89.076,-19.191,-37.29
38739,10.026,0.534,1.025,95.328,-29.313,-34.153
38790,10.023,0.81,0.41,104.458,-36.405,-28.511
38839,10.011,0.936,-0.366,115.496,-39.55,-21.679
38889,9.997,0.884,-1.209,126.458,-38.672,-13.809
38939,10.004,0.577,-1.904,135.481,-33.344,-7.008
38989,10.006,0.177,-2.328,140.634,-24.221,-2.328
39040,10.014,-0.302,-2.687,141.542,-13.244,-0.939
39090,9.947,-0.74,-2.529,137.496,-2.214,-3.214
39139,9.98,-0.982,-2.419,129.939,7.496,-7.29
39189,9.827,-1.142,-1.94,119.588,14.901,-13.183
39239,9.769,-1.109,-1.497,108.466,19.939,-19.191
39291,9.726,-0.924,-1.102,97.496,22.458,-24.695
39343,9.652,-0.659,-0.793,88.672,23.092,-28.611
39393,9.535,-0.316,-0.414,82.886,22.076,-31.115
39444,9.463,0.072,-0.292,80.634,20.145,-31.618
39494,9.448,0.287,-0.043,82.061,17.107,-30.656
39544,9.46,0.659,0.05,86.573,13.832,-28.45
39595,9.489,0.793,0.101,93.779,10.664,-25.061
39645,9.537,0.86,0.036,102.573,7.55,-21.26
39694,9.705,0.941,0.139,112.069,4.427,-17.443
39744,9.812,0.802,0.134,121.45,1.374,-13.817
39794,9.968,0.719,0.077,130.252,-1.412,-10.679
39844,10.215,0.548,0.036,137.863,-4.206,-7.725
39895,10.337,0.364,0.153,143.916,-7.008,-5.13
39945,10.44,0.168,0.089,148.282,-9.321,-3.221
39995,10.545,0.024,0.046,150.481,-11.237,-1.794
40045,10.66,-0.213,-0.141,150.901,-12.847,-1.023
40095,10.694,-0.386,-0.304,149.305,-13.985,-0.473
40145,10.653,-0.539,-0.45,145.252,-14.168,-0.366
40198,10.639,-0.838,-0.663,138.45,-13.397,-1.031
40251,10.409,-1.09,-0.862,129.122,-11.595,-2.847
40304,10.275,-1.308,-1.047,117.031,-8.924,-5.962
40356,10.097,-1.439,-1.011,102.718,-5.71,-10.076
40410,9.827,-1.607,-1.063,86.542,-2.443,-15.427
40460,9.563,-1.645,-1.008,70.107,0.237,-20.985
40510,9.302,-1.612,-0.98,53.962,2.534,-26.992
40560,9.171,-1.43,-0.886,39.42,4.542,-32.504
40610,9.077,-1.219,-0.774,27.542,5.405,-37.511
40660,9.003,-0.845,-0.546,19.496,5.321,-41.649
40711,9.058,-0.247,-0.477,16.954,4.489,-44.053
40760,9.063,0.278,-0.359,20.038,2.84,-44.527
40810,9.173,0.958,-0.249,30.145,0.206,-42.55
40860,9.451,1.583,-0.211,46.015,-2.901,-37.954
40910,9.705,2.062,-0.271,66.695,-6.145,-30.229
40961,9.98,2.426,-0.539,89.702,-8.298,-19.748
41011,10.267,2.409,-0.951,112.511,-8.168,-7.511
41060,10.442,2.206,-1.289,132.153,-4.802,4.573
41110,10.586,1.667,-1.609,147.779,1.985,14.641
41160,10.675,0.968,-1.722,157.053,10.969,21.298
41210,10.687,0.187,-1.691,160.092,21.107,23.153
41261,10.687,-0.534,-1.217,156.038,30.015,20.023
41312,10.648,-1.128,-0.695,145.916,36.267,12.649
41364,10.416,-1.655,-0.067,131.489,38.298,2.71
41415,10.217,-1.76,0.762,115.214,36.489,-7.962
41465,10.006,-1.832,1.267,98.901,30.458,-18.573
41517,9.879,-1.645,1.866,84.252,21.321,-27.733
41567,9.52,-1.365,2.136,73.115,10.244,-35.092
41617,9.326,-0.85,2.417,66.328,-2.214,-39.977
41667,9.154,-0.328,2.239,64.84,-14.519,-42.893
41717,9.039,0.184,1.894,69.458,-26.519,-43.107
41767,8.965,0.862,1.392,79.947,-36.763,-40.443
41818,9.029,1.221,0.592,95.748,-44.664,-34.809
41867,8.981,1.581,-0.345,115.382,-49.061,-26.237
41919,9.274,1.708,-1.487,136.786,-48.511,-15.084
41971,9.432,1.432,-2.548,155.618,-41.038,-3.679
42022,9.803,0.807,-3.248,168.13,-27.763,4.954
42073,9.963,0.014,-3.626,167.214,-11.809,9.435
42122,10.179,-0.642,-3.389,170.756,6.389,7.336
42172,10.337,-1.13,-3.013,161.382,21.046,1.115
42223,10.287,-1.494,-2.323,146.641,31.855,-8.038
42275,10.368,-1.569,-1.528,128.71,37.977,-18.092
42328,10.251,-1.461,-0.788,110.542,39.656,-27.664
42381,10.232,-1.111,-0.069,95.198,37.878,-35.244
42433,10.176,-0.702,0.366,84.405,33.061,-40.137
42484,10.102,-0.177,0.85,79.145,26.511,-42.45
42534,9.908,0.292,1.059,79.389,18.618,-42.145
42585,9.769,0.707,1.154,85.191,10.252,-39.595
42634,9.626,1.044,1.207,95.321,2.008,-35.977
42684,9.618,1.327,1.118,110.13,-6.534,-30.496
42734,9.513,1.473,0.862,127.718,-14.504,-24.191
42784,9.412,1.435,0.553,146.71,-20.916,-16.893
42834,9.477,1.327,0.074,165.076,-25.542,-9.13
42885,9.496,1.047,-0.314,180.954,-27.351,-1.725
42934,9.515,0.536,-0.86,191.985,-26.695,4.672
42984,9.618,0.077,-1.109,197.786,-23.565,9.008
43034,9.815,-0.563,-1.36,196.336,-18.802,10.534
43085,10.014,-1.162,-1.351,188.282,-13.466,8.924
43138,10.155,-1.619,-1.358,173.977,-8.382,4.298
43188,10.308,-1.978,-1.238,155.55,-4.527,-2.366
43240,10.33,-2.206,-1.193,133.718,-1.87,-10.389
43293,10.361,-2.215,-1.102,109.58,0.405,-19.206
43345,10.284,-2.232,-1.106,85.809,2.771,-27.763
43396,10.248,-2.144,-1.001,63.366,4.802,-36.0
43447,10.081,-1.803,-1.073,43.282,7.992,-43.046
43498,9.906,-1.468,-0.881,27.023,11.115,-49.511
43549,9.733,-1.054,-0.805,15.473,14.328,-54.443
43599,9.652,-0.563,-0.757,10.031,17.137,-58.16
43651,9.398,0.031,-0.407,11.481,19.015,-60.191
43701,9.362,0.709,-0.144,20.611,18.763,-60.74
43751,9.295,1.432,0.11,37.664,16.145,-59.084
43801,9.269,2.141,0.484,62.55,10.817,-54.397
43851,9.269,2.864,0.498,94.763,3.351,-46.725
43901,9.367,3.437,0.299,132.74,-4.863,-35.412
43952,9.515,3.777,-0.249,173.947,-11.122,-20.611
44001,9.611,3.672,-1.039,212.786,-12.496,-4.137
44051,9.669,3.09,-1.83,247.313,-6.962,12.092
44101,9.832,2.112,-2.627,250.13,5.573,23.702
44151,9.793,0.891,-2.79,250.13,22.382,27.298
44201,9.879,-0.371,-2.512,250.13,39.16,22.0
44252,9.832,-1.387,-1.722,250.13,51.092,8.885
44301,9.899,-1.89,-0.608,245.008,55.412,-8.26
44351,9.858,-2.045,0.575,221.145,51.58,-26.191
44401,9.891,-1.787,1.653,199.886,40.542,-41.359
44451,9.848,-1.198,2.393,184.466,23.878,-52.344
44503,9.654,-0.496,2.79,177.847,3.954,-57.87
44553,9.63,0.405,2.867,180.954,-17.344,-57.137
44604,9.53,1.164,2.371,193.771,-38.282,-50.351
44654,9.42,1.794,1.602,214.718,-56.145,-37.076
44705,9.391,2.108,0.299,240.069,-67.542,-17.885
44756,9.345,1.856,-0.968,250.13,-69.435,4.282
44807,9.247,0.754,-2.268,250.13,-60.672,24.389
44857,9.269,-0.692,-3.03,250.13,-43.046,36.885
44909,9.405,-2.412,-3.058,250.13,-21.618,38.221
44961,9.377,-3.791,-2.503,219.931,-2.985,29.038
45012,9.587,-4.694,-1.978,156.786,10.168,19.153
45063,9.592,-5.125,-1.054,116.076,20.321,-1.702
45114,9.654,-5.068,-0.022,109.802,19.092,-24.031
45166,9.573,-4.474,0.371,133.641,7.359,-43.931
45216,9.523,-3.772,0.649,134.656,-0.153,-57.015
45267,9.513,-3.03,1.02,127.534,-7.954,-65.267
45318,9.408,-2.17,0.891,119.351,-16.046,-69.374
45370,9.432,-1.353,0.898,111.985,-23.0,-68.893
45422,9.412,-0.613,0.57,107.771,-28.115,-65.16
45474,9.559,-0.069,0.084,108.511,-31.198,-59.137
45526,9.503,0.405,-0.357,114.916,-31.863,-50.84
45578,9.611,0.699,-0.81,127.046,-30.962,-41.779
45630,9.697,0.889,-1.233,145.16,-28.145,-31.519
45682,9.642,0.877,-1.643,168.0,-23.588,-21.214
45734,9.882,0.812,-1.765,194.901,-16.695,-11.237
45786,9.822,0.433,-2.072,224.344,-8.328,-3.099
45836,9.935,0.05,-2.031,250.13,1.13,1.916
45886,9.994,-0.386,-1.847,250.13,10.55,3.374
45936,10.093,-0.838,-1.36,250.13,18.206,0.901
45986,10.028,-1.123,-0.831,250.13,24.015,-5.252
46036,10.217,-1.315,-0.093,250.13,25.824,-13.321
46090,10.227,-1.09,0.673,250.13,22.901,-21.672
46142,10.358,-0.807,1.229,250.13,15.977,-27.099
46193,10.308,-0.146,1.734,250.13,6.84,-28.725
46244,10.337,0.319,1.966,250.13,-2.71,-25.634
46296,10.402,0.857,1.988,250.13,-11.336,-18.863
46348,10.184,1.277,1.899,240.198,-18.489,-8.298
46399,10.095,1.533,1.545,230.183,-22.977,4.809
46448,9.879,1.686,1.233,225.55,-23.863,19.282
46498,9.753,1.554,0.73,225.992,-20.908,33.916
46548,9.575,1.142,0.359,230.511,-13.725,47.473
46599,9.362,0.604,0.235,237.763,-2.84,57.893
46648,9.271,-0.026,0.091,243.939,10.519,63.702
46698,9.101,-0.915,0.599,245.916,25.244,63.931
46748,9.063,-1.811,1.327,238.931,37.511,58.137
46798,9.137,-2.405,2.532,220.023,44.023,47.198
46849,9.147,-2.611,3.873,187.176,42.885,34.267
46899,9.4,-2.644,5.065,121.733,43.405,24.229
46948,9.513,-2.848,5.947,61.496,31.511,7.588
46998,9.482,-2.63,6.268,67.672,1.229,-2.656
47048,9.65,-2.369,6.198,105.313,-23.817,-0.046
47098,9.518,-1.729,5.918,106.664,-43.275,-3.794
47149,9.523,-1.233,5.286,103.412,-60.389,-3.511
47199,9.556,-0.836,4.404,96.649,-73.214,-0.412
47249,9.626,-0.613,3.581,89.053,-81.504,3.901
47299,9.573,-0.536,2.409,82.847,-84.855,9.038
47349,9.57,-0.673,1.456,80.099,-83.626,13.679
47399,9.523,-0.879,0.429,82.626,-78.504,17.359
47450,9.518,-1.255,-0.345,91.435,-69.656,20.244
47499,9.537,-1.554,-1.025,106.794,-58.359,21.939
47549,9.496,-2.062,-1.502,130.023,-44.305,22.168
47599,9.525,-2.57,-1.796,160.481,-28.71,20.084
47649,9.482,-3.152,-1.698,198.053,-12.901,14.321
47702,9.523,-3.609,-1.169,241.504,0.725,4.695
47752,9.408,-3.763,-0.328,250.13,8.55,-8.802
47801,9.355,-3.427,0.742,250.13,8.382,-22.901
47851,9.3,-2.601,1.643,250.13,0.229,-34.42
47901,9.422,-1.461,2.043,250.13,-13.0,-39.313
47952,9.676,-0.117,1.957,250.13,-26.824,-35.496
48005,9.86,0.848,1.375,250.13,-35.481,-23.756
48055,10.155,1.351,0.551,250.13,-35.672,-9.092
48106,10.449,1.289,-0.046,250.13,-28.069,4.489
48157,10.493,1.013,-0.62,250.13,-15.313,14.145
48209,10.591,0.56,-0.786,250.13,0.0,18.58
48260,10.586,0.271,-0.501,250.13,13.58,18.015
48310,10.56,0.062,-0.285,250.13,24.809,14.107
48361,10.447,0.093,0.196,250.13,32.672,8.481
48411,10.346,0.16,0.4,250.13,37.908,2.924
48461,10.1,0.366,0.697,250.13,41.55,-2.504
48512,9.997,0.702,0.924,250.13,44.13,-7.321
48562,9.745,1.027,1.03,245.366,46.015,-11.344
48611,9.57,1.296,1.346,229.298,47.656,-14.679
48661,9.377,1.669,1.641,206.198,48.221,-17.107
48711,9.271,2.134,1.976,176.389,48.305,-17.695
48761,9.111,2.651,2.402,139.366,47.397,-15.58
48812,9.118,3.219,2.855,95.397,45.534,-9.626
48862,9.07,3.545,3.449,45.496,42.412,0.115
48911,8.984,3.497,4.146,-19.702,38.573,7.557
48961,9.209,3.152,5.195,-85.321,25.786,14.557
49011,9.075,2.455,5.336,-86.626,8.527,33.237
49061,9.041,1.612,5.552,-77.855,-8.71,42.985
49112,9.202,0.74,5.441,-72.366,-27.908,44.26
49161,9.285,-0.089,4.924,-60.634,-44.962,41.412
49211,9.432,-0.774,4.208,-43.71,-58.672,35.588
49261,9.527,-1.154,3.312,-24.626,-67.947,27.969
49311,9.594,-1.521,2.211,-5.496,-71.756,19.985
49361,9.657,-1.693,1.296,11.992,-71.389,12.321
49412,9.848,-1.775,0.426,27.046,-66.733,5.023
49461,9.779,-1.727,-0.24,38.931,-58.763,-1.466
49511,9.97,-1.7,-0.884,48.656,-48.015,-7.626
49561,10.014,-1.746,-1.463,56.023,-35.16,-13.565
49611,9.966,-1.712,-1.847,61.702,-20.71,-19.71
49661,9.891,-1.657,-2.007,65.733,-5.702,-26.695
49712,9.827,-1.437,-1.885,68.374,9.053,-33.901
49761,9.774,-1.063,-1.626,68.664,21.832,-40.565
49811,9.714,-0.599,-1.104,66.74,33.099,-46.802
49861,9.717,0.002,-0.582,61.382,41.969,-51.13
49911,9.681,0.814,0.23,51.885,47.855,-53.252
49961,9.654,1.619,0.958,37.634,50.878,-51.672
50012,9.745,2.417,1.691,18.992,51.115,-45.038
50061,9.781,3.015,2.421,-2.397,48.42,-34.305
50111,9.839,3.327,3.061,-25.504,43.053,-19.779
50161,9.908,3.3,3.583,-47.779,35.244,-3.947
50211,9.894,2.953,3.94,-66.183,24.802,11.115
50262,9.817,2.354,4.091,-79.664,12.786,22.908
50312,9.796,1.612,4.038,-86.809,0.206,30.45
50361,9.702,0.855,3.861,-86.985,-11.344,33.336
50411,9.633,0.105,3.528,-80.939,-20.992,32.557
50461,9.496,-0.477,3.126,-69.718,-28.29,28.634
50511,9.412,-0.929,2.658,-54.977,-32.397,22.672
50562,9.432,-1.236,2.146,-38.015,-34.053,16.0
50612,9.329,-1.396,1.641,-20.198,-32.809,9.321
50662,9.377,-1.497,1.171,-2.885,-29.87,2.817
50712,9.429,-1.492,0.857,13.305,-25.122,-3.191
50762,9.432,-1.387,0.774,28.008,-19.603,-8.679
50812,9.58,-1.3,0.637,40.725,-14.023,-13.977
50863,9.786,-1.004,0.683,51.023,-8.618,-18.496
50912,9.968,-0.604,0.886,58.0,-4.557,-21.947
50962,10.109,-0.228,1.159,62.405,-2.305,-24.023
51012,10.37,0.249,1.377,63.107,-1.099,-24.664
51062,10.457,0.604,1.511,60.229,-1.466,-22.916
51112,10.718,0.97,1.511,54.053,-2.557,-19.198
51163,10.792,1.154,1.382,45.183,-3.511,-13.748
51212,10.811,1.279,1.219,35.115,-3.412,-7.924
51262,10.778,1.229,1.183,23.962,-1.992,-2.015
51312,10.802,1.044,0.884,12.656,0.313,2.595
51362,10.598,0.841,0.805,2.26,3.809,6.015
51412,10.404,0.639,0.623,-6.832,8.244,8.107
51463,10.21,0.331,0.709,-13.924,13.45,8.87
51512,10.038,0.194,0.666,-19.069,19.359,8.267
51562,9.745,-0.036,0.711,-21.588,25.168,6.87
51612,9.484,-0.172,0.915,-21.802,30.611,5.122
51662,9.317,-0.307,1.162,-19.275,35.588,2.992
51713,9.103,-0.302,1.597,-14.573,39.794,0.573
51763,9.041,-0.309,2.005,-7.55,42.45,-1.809
51812,8.962,-0.283,2.642,0.962,43.168,-4.382
51862,8.974,-0.036,3.391,10.802,41.382,-6.366
51912,9.13,0.28,3.954,20.954,36.534,-7.359
51962,9.228,0.639,4.682,30.511,28.13,-7.0
52013,9.513,1.102,5.207,38.137,16.038,-4.588
52063,9.659,1.305,5.348,43.611,1.794,0.511
52113,9.796,1.494,5.207,46.847,-12.863,7.275
52163,9.915,1.437,4.816,47.496,-26.748,14.832
52213,10.088,1.327,4.383,46.992,-38.374,22.626
52263,10.131,1.13,3.65,45.466,-47.313,29.107
52314,10.193,0.735,3.037,44.344,-53.069,34.053
52363,10.124,0.275,2.203,43.771,-54.885,37.244
52413,10.148,-0.216,1.607,45.42,-53.954,38.221
52463,10.121,-0.81,0.946,49.221,-49.595,37.206
52513,10.04,-1.365,0.462,56.305,-43.397,33.626
52563,9.915,-1.801,0.156,66.344,-35.427,28.176
52614,9.889,-2.182,-0.307,79.511,-26.794,20.969
52663,9.757,-2.441,-0.357,95.84,-17.672,12.565
52713,9.604,-2.706,-0.443,114.977,-9.046,2.756
52763,9.491,-2.69,-0.242,135.962,-1.237,-7.954
52813,9.386,-2.503,0.048,157.901,4.107,-18.802
52864,9.341,-2.199,0.369,178.542,6.351,-28.679
52914,9.336,-1.562,0.644,196.038,5.557,-37.244
52963,9.458,-0.881,0.721,207.359,2.611,-42.634
53013,9.549,-0.05,0.68,211.511,-0.832,-44.504
53063,9.707,0.627,0.395,207.893,-3.031,-42.847
53113,9.939,1.202,0.108,196.824,-2.748,-38.466
53164,10.203,1.499,-0.055,180.878,0.58,-32.626
53214,10.385,1.787,-0.218,160.473,6.351,-26.504
53263,10.555,1.94,-0.247,138.45,13.153,-20.733
53313,10.608,2.06,-0.01,114.542,20.115,-15.008
53363,10.591,2.196,0.335,89.977,26.389,-9.313
53413,10.564,2.326,0.63,65.153,30.992,-2.985
53464,10.399,2.383,1.023,40.84,34.145,4.328
53513,10.239,2.338,1.483,18.412,35.725,11.969
53563,9.992,2.28,1.854,-2.145,35.061,20.359
53613,9.906,1.973,2.304,-19.084,32.519,28.366
53663,9.585,1.686,2.606,-31.183,28.58,35.565
53713,9.341,1.042,2.896,-36.947,23.672,41.015
53764,9.228,0.474,3.109,-35.908,18.565,44.298
53813,9.135,-0.148,3.145,-27.145,13.618,44.939
53863,8.974,-0.8,3.08,-11.137,9.473,43.664
53913,9.0,-1.411,3.046,11.328,6.733,40.206
53963,9.087,-1.875,2.929,39.214,4.855,34.282
54013,9.235,-2.345,2.975,70.954,4.145,26.542
54064,9.386,-2.448,2.927,104.817,3.542,17.42
54113,9.599,-2.35,3.193,137.702,1.626,7.511
54163,9.764,-1.981,3.434,168.008,-2.191,-2.344
54213,9.925,-1.449,3.6,192.886,-8.824,-10.031
54263,10.064,-0.577,3.684,209.45,-18.008,-13.71
54313,10.255,0.342,3.221,216.176,-27.382,-12.26
54364,10.272,1.13,2.817,212.87,-34.771,-5.557
54413,10.327,1.653,2.122,200.618,-38.237,4.901
54463,10.366,1.995,1.392,182.206,-37.115,17.595
54513,10.366,2.067,0.58,159.702,-30.557,29.916
54563,10.239,1.744,0.057,136.847,-19.802,40.863
54614,10.085,1.281,-0.469,116.733,-6.603,48.656
54664,9.944,0.656,-0.57,101.794,7.916,53.084
54713,9.738,-0.005,-0.422,94.344,22.244,53.718
54763,9.7,-0.678,-0.158,95.206,35.473,50.626
54813,9.527,-1.408,0.529,105.534,46.748,44.183
54863,9.341,-1.983,1.339,125.603,55.0,33.496
54914,9.274,-2.211,2.407,153.282,58.45,19.389
54964,9.24,-1.971,3.621,185.267,55.046,2.947
55014,9.271,-1.257,4.749,216.237,43.206,-12.198
55064,9.264,0.046,5.394,240.015,24.519,-21.244
55114,9.336,1.418,5.398,250.13,2.573,-21.008
55164,9.511,2.601,4.802,246.26,-16.427,-11.221
55215,9.513,3.422,3.83,227.763,-28.229,5.55
55264,9.551,3.585,2.761,200.168,-32.26,23.649
55314,9.609,3.305,1.871,167.076,-29.206,40.733
55364,9.597,2.747,1.178,134.321,-22.069,53.84
55414,9.535,1.923,0.692,106.214,-12.679,62.107
55464,9.623,1.006,0.469,85.359,-3.13,65.939
55515,9.683,0.096,0.402,73.229,5.924,65.656
55564,9.594,-0.707,0.592,70.779,14.366,61.893
55614,9.647,-1.43,0.783,77.26,22.053,54.87
55664,9.645,-2.065,1.013,92.237,28.847,44.985
55714,9.729,-2.385,1.49,114.634,33.618,32.618
55764,9.743,-2.529,2.11,141.878,35.206,18.29
55815,9.755,-2.287,2.764,171.443,33.519,3.389
55864,9.872,-1.72,3.281,198.588,27.29,-9.924
55914,9.901,-0.857,3.648,220.656,16.786,-19.824
55964,9.944,0.137,3.593,233.603,4.359,-24.092
56014,10.011,1.147,3.121,235.496,-7.0,-22.046
56065,10.081,1.868,2.577,226.015,-14.939,-14.916
56115,10.215,2.369,1.796,207.618,-17.405,-4.947
56164,10.133,2.424,1.104,183.588,-14.595,5.115
56214,10.232,2.335,0.692,156.473,-7.84,13.87
56264,10.145,2.127,0.419,128.328,0.641,20.427
56314,10.131,1.973,0.359,101.427,9.603,25.466
56365,9.966,1.827,0.474,77.145,17.298,29.145
56415,9.86,1.581,0.635,55.962,23.71,32.58
56465,9.798,1.368,0.996,38.443,28.061,35.969
56515,9.609,1.19,1.353,24.901,31.061,39.496
56565,9.47,0.944,1.734,16.748,32.321,42.824
56615,9.463,0.541,1.988,14.305,32.702,45.748
56666,9.302,0.096,2.342,18.13,32.015,47.29
56715,9.367,-0.398,2.536,29.008,31.031,47.099
56765,9.29,-0.994,3.006,46.985,29.481,44.588
56815,9.403,-1.542,3.336,72.122,27.305,39.336
56865,9.491,-1.969,3.71,102.824,23.901,31.374
56915,9.575,-2.093,4.17,136.931,18.153,21.55
56966,9.57,-2.091,4.539,171.496,10.153,11.046
57015,9.733,-1.523,4.859,202.206,-0.908,2.443
57065,9.774,-0.817,4.931,227.0,-14.191,-2.855
57115,9.856,0.019,4.718,241.389,-28.13,-2.878
57165,9.884,0.848,4.244,244.58,-40.382,3.145
57216,9.99,1.456,3.31,236.641,-48.313,14.13
57266,10.023,1.777,2.263,220.534,-50.053,27.649
57315,10.028,1.688,1.315,200.702,-45.924,40.542
57365,9.956,1.245,0.51,179.87,-35.916,51.13
57415,9.935,0.661,-0.28,162.695,-22.229,57.534
57465,9.937,-0.194,-0.651,151.908,-6.038,59.076
57516,9.848,-0.958,-0.814,149.557,11.015,55.931
57566,9.654,-1.88,-0.613,156.87,27.771,47.344
57615,9.551,-2.409,-0.127,173.84,42.038,34.046
57665,9.446,-2.802,0.62,199.45,52.435,16.282
57715,9.307,-2.764,1.696,231.061,56.069,-5.061
57765,9.175,-2.177,2.793,250.13,50.878,-26.649
57816,9.058,-0.85,3.602,250.13,37.191,-44.053
57865,9.012,0.821,3.863,250.13,17.16,-52.756
57915,9.108,2.57,3.533,250.13,-3.702,-50.183
57965,9.307,4.136,2.603,250.13,-19.099,-36.557
58015,9.441,4.828,1.348,214.351,-25.656,-18.809
58065,9.513,5.14,0.232,138.405,-26.313,-2.992
58116,9.515,5.36,-0.309,78.992,-22.847,15.397
58165,9.472,4.012,-1.114,80.115,-6.695,37.908
58215,9.786,3.573,-0.879,97.046,13.076,47.863
58265,9.618,2.862,-1.008,85.748,24.656,55.924
58315,9.712,2.045,-0.728,74.229,34.481,59.885
58365,9.642,1.224,-0.283,63.649,41.786,60.191
58416,9.671,0.551,0.359,56.145,46.008,57.489
58465,9.676,-0.062,1.018,53.595,46.855,52.847
58515,9.709,-0.587,1.715,56.168,44.481,45.977
58565,9.657,-1.018,2.227,64.366,39.42,37.725
58615,9.731,-1.356,2.692,77.489,32.733,28.046
58665,9.681,-1.442,3.09,96.031,23.718,18.0
58716,9.676,-1.406,3.358,118.84,13.313,7.977
58765,9.657,-1.286,3.47,143.603,2.45,-0.748
58815,9.64,-0.951,3.396,170.84,-9.344,-7.305
58865,9.652,-0.601,3.092,197.969,-20.656,-10.87
58915,9.729,-0.196,2.651,222.298,-30.649,-10.916
58966,9.808,0.053,1.94,242.153,-38.084,-7.817
59016,9.834,0.206,1.291,250.13,-42.366,-2.863
59065,10.047,0.117,0.716,250.13,-43.176,2.298
59115,10.203,-0.194,0.163,250.13,-40.954,6.718
59165,10.315,-0.462,-0.314,249.374,-36.611,8.527
59215,10.358,-0.85,-0.692,234.878,-31.092,7.954
59266,10.469,-1.128,-0.972,215.832,-24.939,4.221
59316,10.481,-1.377,-1.068,194.099,-19.145,-1.565
59366,10.445,-1.538,-1.104,170.435,-13.939,-8.603
59416,10.296,-1.645,-1.322,145.908,-8.687,-16.802
59466,10.263,-1.71,-1.382,121.061,-2.908,-25.718
59516,10.028,-1.621,-1.54,96.183,3.069,-35.366
59567,9.832,-1.435,-1.413,72.16,9.282,-45.008
59616,9.508,-1.071,-1.339,49.954,15.573,-53.824
59666,9.365,-0.625,-1.212,29.672,21.87,-61.664
59716,9.159,0.014,-0.903,13.0,28.275,-67.42
59766,8.95,0.721,-0.627,1.137,33.557,-70.824
59816,8.859,1.586,-0.132,-3.458,37.779,-71.595
59867,8.864,2.412,0.613,-0.649,40.13,-69.427
59916,8.878,3.331,1.154,10.443,39.282,-64.191
59966,9.029,4.225,1.794,29.351,34.985,-54.565
60016,9.123,4.972,2.139,52.992,26.969,-41.153
60066,9.345,5.597,2.218,78.733,17.328,-23.466
60116,9.477,5.918,1.976,102.618,8.458,-2.534
60167,9.563,5.815,1.437,121.389,3.107,19.634
60216,9.554,5.288,0.745,132.687,2.557,39.771
60266,9.554,4.601,0.163,136.366,7.099,57.122
60316,9.518,3.549,-0.194,132.298,15.107,69.481
60366,9.537,2.421,-0.486,122.321,25.076,76.115
60417,9.491,1.339,-0.433,108.725,34.916,77.229
60467,9.427,0.208,-0.247,94.504,43.427,73.168
60516,9.468,-0.723,0.254,82.534,49.695,65.221
60566,9.465,-1.583,0.606,74.298,53.748,53.702
60616,9.468,-2.227,1.207,71.977,54.954,39.191
60700,9.525,-2.857,2.359,83.389,49.969,10.611
60749,9.556,-2.716,3.106,100.84,41.725,-7.939
60800,9.501,-2.314,3.765,126.664,29.084,-25.626
60850,9.499,-1.55,4.129,159.71,12.282,-40.305
60899,9.415,-0.354,4.019,196.237,-7.321,-48.626
60949,9.448,0.953,3.561,233.534,-28.137,-48.061
60999,9.496,2.17,2.402,250.13,-45.351,-37.954
61049,9.647,2.888,0.927,250.13,-54.832,-19.061
61100,9.65,2.908,-0.788,250.13,-52.351,2.511
61150,9.889,2.268,-2.108,250.13,-38.359,21.053
61199,10.129,1.31,-2.869,247.229,-17.962,30.328
61249,10.167,0.22,-3.032,212.237,4.168,30.29
61299,10.157,-0.623,-2.668,175.466,23.557,22.695
61349,10.064,-1.142,-2.057,140.863,37.679,10.802
61400,9.985,-1.265,-1.36,111.412,46.626,-1.924
61449,9.846,-1.224,-0.639,89.466,51.374,-13.29
61499,9.693,-0.965,-0.01,74.985,53.275,-23.382
61549,9.657,-0.575,0.625,68.42,51.809,-31.313
61599,9.523,-0.187,1.128,70.137,48.42,-37.473
61649,9.403,0.302,1.669,78.702,42.733,-41.962
61700,9.374,0.826,2.012,93.573,35.031,-44.771
61749,9.295,1.435,2.096,112.947,26.252,-46.023
61799,9.369,2.005,2.146,135.527,16.298,-44.802
61849,9.336,2.539,1.957,158.206,6.397,-41.092
61899,9.463,2.999,1.557,178.42,-2.504,-34.786
61949,9.594,3.351,0.936,193.443,-8.87,-25.397
62000,9.609,3.502,0.201,201.145,-11.74,-14.466
62049,9.786,3.331,-0.433,200.756,-10.511,-3.389
62099,9.925,2.888,-0.992,191.733,-5.458,6.282
62149,10.006,2.441,-1.365,175.969,2.626,13.443
62199,10.078,1.902,-1.516,154.725,11.473,17.145
62249,10.164,1.37,-1.552,130.45,19.992,18.16
62300,10.196,0.886,-1.399,105.328,27.458,16.885
62349,10.148,0.582,-1.346,80.878,33.954,14.84
62399,10.112,0.28,-1.178,57.565,39.656,11.702
62449,10.03,0.048,-0.915,36.947,44.992,8.328
62499,9.98,-0.132,-0.678,19.45,50.061,4.344
62550,9.879,-0.254,-0.333,6.794,54.542,0.13
62600,9.642,-0.309,0.069,-0.931,58.435,-4.344
62649,9.609,-0.266,0.58,-2.29,60.885,-8.771
62699,9.527,-0.206,1.142,2.916,62.183,-13.069
62749,9.379,0.0,1.799,15.962,61.084,-17.939
62799,9.355,0.141,2.644,37.794,56.336,-22.725
62850,9.321,0.553,3.382,67.962,48.053,-27.855
62900,9.333,1.15,4.016,105.771,35.122,-31.794
62950,9.348,1.928,4.383,148.656,18.13,-32.908
63000,9.41,2.999,4.081,192.771,-0.55,-28.252
63050,9.525,3.971,3.411,232.489,-17.664,-15.626
63100,9.547,4.618,2.062,250.13,-27.565,4.641
63151,9.611,4.601,0.522,250.13,-26.618,27.641
63200,9.815,4.038,-0.752,250.13,-14.29,48.16
63250,9.606,2.814,-1.581,250.13,5.473,61.252
63300,9.678,1.533,-1.839,234.183,27.763,64.542
63350,9.695,0.208,-1.459,206.252,47.382,58.328
63400,9.719,-0.843,-0.793,181.771,61.702,45.603
63451,9.681,-1.602,0.122,165.038,69.489,28.229
63500,9.642,-2.029,1.341,159.038,70.313,8.977
63550,9.7,-2.029,2.261,164.71,64.412,-11.107
63600,9.628,-1.612,3.212,182.58,52.176,-30.107
63650,9.506,-0.769,3.878,211.359,33.344,-45.115
63700,9.458,0.333,4.146,247.313,9.992,-53.649
63751,9.324,1.653,3.669,250.13,-14.908,-52.534
63800,9.226,2.809,2.572,250.13,-36.275,-40.565
63850,9.238,3.463,0.975,250.13,-49.191,-19.366
63900,9.733,3.399,-0.872,250.13,-49.084,5.214
63950,9.374,2.462,-2.256,250.13,-36.992,25.496
64001,9.46,1.018,-3.094,250.13,-17.115,36.237
64051,9.709,-0.472,-3.212,236.649,4.473,35.252
64100,9.676,-1.748,-2.666,192.282,22.084,25.069
64150,9.774,-2.517,-1.928,151.29,34.366,7.824
64200,9.872,-2.891,-1.147,117.74,40.099,-11.664
64250,9.889,-2.697,-0.501,92.198,40.687,-30.237
64301,9.906,-2.282,0.153,74.176,38.214,-46.336
64351,9.889,-1.705,0.467,62.863,34.084,-58.847
64401,9.918,-0.922,0.692,56.702,29.351,-67.947
64451,9.867,-0.072,0.685,55.29,25.13,-73.16
64501,9.772,0.73,0.601,57.198,21.687,-74.481
64551,9.671,1.502,0.503,61.519,19.458,-72.802
64602,9.626,2.215,0.534,68.198,17.832,-68.985
64651,9.573,2.757,0.378,75.481,16.71,-63.191
64701,9.496,3.355,0.314,83.527,16.031,-55.489
64751,9.405,3.875,0.263,91.092,15.183,-46.481
64801,9.271,4.275,0.165,97.733,14.885,-36.153
64851,9.285,4.697,0.046,102.908,14.679,-24.191
64902,9.171,4.912,-0.139,105.748,15.702,-11.244
64951,9.089,4.924,-0.247,106.267,18.153,1.824
65001,9.063,4.747,-0.501,103.977,21.664,14.313
65051,9.091,4.512,-0.45,99.443,26.099,25.244
65101,9.06,4.1,-0.374,93.626,30.359,34.969
65152,9.075,3.595,-0.273,86.695,34.359,43.244
65202,9.235,3.015,-0.038,79.412,37.611,49.534
65251,9.321,2.292,0.18,72.672,39.634,53.771
65301,9.487,1.535,0.548,66.954,40.954,55.389
65351,9.671,0.824,0.728,62.756,40.779,54.45
65401,9.781,0.065,0.96,60.183,40.252,50.634
65452,9.903,-0.647,1.298,60.107,38.542,44.13
65502,10.097,-1.281,1.562,62.824,36.16,34.588
65551,10.112,-1.791,1.859,69.069,32.847,23.008
65601,10.229,-2.048,2.153,78.786,28.229,9.221
65651,10.176,-2.156,2.558,92.366,21.695,-5.573
65701,10.164,-1.866,2.821,110.466,12.588,-20.122
65752,10.045,-1.478,2.953,132.092,0.779,-33.061
65801,10.002,-0.704,2.989,155.237,-13.252,-41.992
65851,9.827,0.192,2.694,178.992,-28.344,-45.313
65901,9.793,1.121,1.983,199.145,-42.206,-41.962
65951,9.652,1.789,0.92,211.542,-52.267,-32.267
66001,9.664,2.263,-0.311,212.153,-55.015,-18.305
66052,9.717,2.27,-1.557,199.977,-50.382,-3.519
66101,9.626,1.839,-2.632,175.489,-38.748,8.137
66151,9.738,1.195,-3.303,140.229,-21.687,14.809
66201,9.743,0.582,-3.578,98.87,-2.985,16.504
66251,9.7,0.113,-3.432,55.351,15.427,13.878
66301,9.681,-0.175,-3.051,13.374,31.382,9.58
66352,9.513,-0.268,-2.402,-24.183,44.763,5.221
66401,9.518,-0.237,-1.851,-54.634,54.336,2.573
66451,9.391,-0.17,-0.946,-77.847,61.122,1.832
66501,9.434,-0.134,-0.065,-92.305,63.939,2.626
66551,9.338,-0.201,0.838,-97.443,63.115,4.069
66601,9.46,-0.249,1.557,-93.87,58.824,4.664
66652,9.46,-0.465,2.251,-82.42,51.916,4.191
66701,9.65,-0.69,2.747,-65.886,43.664,1.382
66751,9.64,-0.853,3.157,-42.557,33.176,-3.679
66801,9.887,-0.795,3.434,-16.359,22.107,-10.282
66851,9.884,-0.62,3.535,12.092,10.26,-17.313
66902,9.968,-0.307,3.47,41.115,-2.336,-23.557
66952,9.985,0.22,3.272,69.458,-14.687,-27.29
67001,10.124,0.793,2.84,94.443,-26.206,-27.527
67051,10.121,1.31,2.067,114.817,-35.092,-24.313
67101,10.215,1.741,1.13,128.695,-40.13,-17.71
67151,10.222,1.83,0.16,134.023,-39.779,-9.511
67202,10.27,1.777,-0.699,131.489,-34.519,-1.298
67252,10.33,1.516,-1.257,121.908,-25.473,5.229
67302,10.337,1.269,-1.454,107.099,-14.641,8.779
67352,10.267,1.008,-1.48,88.557,-3.664,10.313
67402,10.196,0.79,-1.346,68.969,6.069,9.885
67452,9.99,0.678,-1.121,49.29,13.527,8.794
67503,9.93,0.592,-0.683,31.725,18.702,7.534
67552,9.724,0.534,-0.429,17.237,21.74,6.626
67602,9.568,0.508,0.0,5.618,23.298,5.595
67652,9.446,0.426,0.34,-2.42,23.29,4.397
67702,9.398,0.414,0.558,-7.069,22.344,3.183
67752,9.403,0.369,0.692,-8.985,20.802,1.359
67803,9.3,0.251,0.908,-8.611,18.687,-1.015
67852,9.477,0.139,0.994,-6.382,16.344,-3.26
67902,9.525,0.168,1.102,-3.015,13.618,-6.366
67952,9.611,0.168,1.049,0.84,11.0,-9.275
68002,9.865,0.206,1.071,5.107,8.74,-12.718
68052,10.04,0.297,0.934,8.924,6.664,-15.55
68103,10.248,0.414,0.881,12.321,5.389,-18.137
68152,10.466,0.589,0.685,16.176,5.0,-19.977
68202,10.615,0.891,0.68,20.053,5.473,-20.847
68252,10.715,1.152,0.671,24.718,6.374,-20.695
68302,10.799,1.296,0.776,30.58,7.015,-19.504
68353,10.861,1.533,0.889,37.504,7.344,-17.725
68403,10.739,1.765,1.006,44.931,6.527,-14.565
68452,10.627,2.031,1.104,53.382,4.389,-10.634
68502,10.548,2.225,1.231,61.985,1.847,-5.076
68552,10.224,2.347,1.13,70.115,-1.229,1.359
68602,9.999,2.469,1.159,77.176,-3.511,8.656
68653,9.688,2.361,0.817,82.664,-5.053,15.893
68703,9.386,2.117,0.683,85.26,-5.603,22.267
68753,9.199,1.823,0.4,84.916,-4.42,26.809
68803,9.075,1.332,0.228,81.366,-2.71,29.412
68853,8.907,0.817,0.0,74.443,-0.466,30.023
68903,8.888,0.354,-0.031,64.802,2.282,28.298
68954,9.024,-0.216,-0.153,53.29,4.29,24.412
69003,9.154,-0.678,-0.022,40.885,6.328,19.023
69053,9.345,-1.138,-0.024,28.435,7.893,11.71
69103,9.657,-1.468,-0.031,16.435,9.282,2.16
69153,9.963,-1.605,0.156,5.702,10.389,-8.389
69203,10.215,-1.42,0.335,-2.863,11.282,-19.519
69254,10.471,-1.09,0.369,-9.359,11.893,-29.626
69303,10.766,-0.508,0.553,-13.382,12.252,-37.336
69353,10.926,0.036,0.63,-14.939,11.885,-42.374
69403,10.998,0.738,0.869,-14.336,11.397,-43.962
69453,11.091,1.365,0.927,-11.084,10.084,-41.878
69504,10.984,1.902,0.946,-5.901,8.603,-36.855
69554,10.72,2.412,1.073,1.084,7.198,-29.405
69603,10.552,2.738,0.948,9.527,5.084,-20.542
69653,10.239,2.972,0.98,19.053,3.702,-10.634
69703,9.932,3.092,0.948,28.679,2.336,-0.282
69753,9.671,2.972,0.924,37.74,1.489,9.42
69804,9.336,2.778,0.738,45.427,1.237,17.137
69854,9.02,2.373,0.697,51.55,1.237,22.71
69903,8.84,1.921,0.604,56.076,1.595,25.947
69953,8.737,1.43,0.541,58.366,2.374,26.885
70003,8.787,0.939,0.558,58.771,3.107,25.427
70053,8.847,0.383,0.541,57.931,3.542,21.931
70104,9.108,0.01,0.608,55.939,3.466,16.931
70153,9.242,-0.352,0.675,53.71,3.092,10.794
70203,9.525,-0.508,0.807,51.634,1.687,3.229
70253,9.887,-0.419,0.759,49.504,-0.214,-4.489
70303,10.162,-0.275,0.695,46.916,-2.55,-11.595
70353,10.502,0.048,0.486,43.84,-4.275,-16.794
70404,10.749,0.441,0.287,39.595,-5.061,-19.779
70453,10.912,0.829,0.005,34.718,-4.13,-20.176
70503,11.027,1.241,-0.182,28.473,-1.71,-18.29
70553,11.036,1.521,-0.371,21.779,2.336,-14.504
70603,11.046,1.751,-0.462,14.397,7.366,-9.229
70653,10.881,1.813,-0.455,7.153,13.107,-3.252
70704,10.634,1.784,-0.371,1.023,18.771,2.954
70753,10.483,1.736,-0.151,-3.786,23.42,8.511
70803,10.107,1.547,0.18,-6.374,26.733,12.855
70853,9.863,1.274,0.577,-5.763,28.649,15.893
70903,9.25,1.097,1.966,-5.527,25.397,16.42
70953,8.998,1.142,2.879,-32.168,2.664,20.435
71004,8.962,0.419,1.985,-49.832,-13.366,20.947
71053,9.139,-0.46,1.085,-55.351,-19.664,21.328
71103,9.262,-0.86,1.133,-49.802,-21.733,12.595
71153,9.386,-1.071,0.999,-47.382,-24.061,2.969
71203,9.496,-0.218,-0.386,-20.824,-15.443,-2.695
71254,9.472,-0.022,2.955,-27.87,-22.344,13.42
71304,10.114,-1.063,-0.539,-85.214,-29.527,5.267
71353,10.593,-0.525,0.321,-59.992,-36.702,7.672
71403,11.884,-0.323,-1.078,-11.626,-27.031,-0.427
71453,11.975,-0.836,-1.612,-0.992,-19.962,0.977
71503,10.73,2.354,-0.826,-5.916,-11.702,1.748
71554,11.142,-0.268,-1.581,-28.611,0.046,3.359
71604,11.24,0.077,-0.632,-5.481,5.267,2.695
71654,11.396,0.568,-0.934,12.519,9.489,5.008
71704,10.814,0.141,-1.056,-12.511,12.061,8.351
71754,10.505,-0.295,-0.754,-3.29,15.359,5.916
71804,10.342,-0.342,-0.316,21.481,12.053,1.626
71855,9.99,-0.63,0.019,29.053,10.71,-3.771
71904,10.093,-0.51,-0.146,9.969,7.328,-6.244
71954,9.896,-0.503,-0.022,7.809,4.786,-9.344
72004,9.958,-0.412,-0.22,2.427,4.618,-7.725
72054,10.236,-0.268,0.01,10.863,6.397,-7.992
72104,9.958,-0.599,-0.022,6.695,9.198,-7.153
72155,10.124,-0.204,-0.036,12.198,13.969,-7.122
72204,9.566,-0.259,0.275,10.382,18.74,-5.176
72254,9.125,-0.565,0.225,5.42,18.641,-4.855
72304,9.099,-0.249,0.719,3.115,18.649,-6.069
72354,9.312,-0.089,0.73,11.458,15.939,-2.42
72404,9.264,-0.201,0.546,6.84,14.13,-1.725
72455,9.659,-0.338,0.639,10.092,15.29,-1.664
72504,9.999,-0.206,0.697,11.557,11.351,-0.74
72554,9.784,-0.247,1.092,6.053,8.038,-0.466
72604,9.796,-0.532,1.001,14.969,4.519,-1.023
72654,10.133,-0.467,0.599,1.931,2.344,-3.031
72705,10.023,-0.122,0.836,2.069,1.382,-4.26
72755,9.858,-0.228,0.924,1.137,-1.824,-2.336
72804,10.26,-0.232,0.984,5.695,-5.679,-0.763
72854,10.291,-0.271,0.886,0.046,-7.244,-0.947
72904,10.433,-0.405,0.881,1.771,-9.374,0.137
72954,10.653,-0.481,0.692,-3.504,-8.13,-0.779
73005,10.327,-0.388,0.635,-8.626,-7.473,-1.557
73055,10.313,-0.11,0.438,-6.405,-4.924,-0.13
73105,10.217,-0.034,0.577,-5.748,-4.107,3.519
73155,10.248,-0.125,0.663,-2.115,-3.366,5.573
73205,10.246,0.117,0.735,5.718,-2.359,10.595
73255,9.908,-0.393,0.568,13.939,-1.115,11.901
73306,10.052,-0.728,0.563,4.214,-1.649,7.557
73355,10.22,-0.62,0.546,-8.13,-0.985,3.672
73405,9.951,-0.802,0.503,-1.664,-1.496,-2.336
73455,9.927,-0.378,0.721,-12.176,-3.137,-4.725
73505,9.721,-0.17,0.757,-3.13,-5.817,-5.031
73555,9.851,-0.046,0.4,-6.168,-6.802,-1.863
73606,9.491,0.053,0.467,-12.214,-3.885,1.214
73655,9.712,-0.501,0.065,-6.641,-2.55,1.863
73705,9.333,-0.4,0.479,-23.015,1.237,-0.153
73755,9.472,-0.122,-0.211,-9.191,4.748,0.58
73805,9.513,-0.199,0.359,-16.26,8.336,1.069
73856,9.448,-0.469,0.498,-18.794,9.908,1.702
73906,9.566,-0.35,0.742,-23.863,6.878,0.183
73955,9.554,-0.52,0.498,-19.885,6.13,-2.565
74005,9.944,0.113,0.714,-27.58,6.252,-0.26
74055,10.081,-0.113,1.126,-13.359,3.275,2.947
74105,10.196,-0.532,1.106,-20.42,-1.817,1.794
74156,10.507,-0.405,0.577,-16.168,-3.405,-0.557
74206,10.282,-0.587,0.041,-24.58,0.656,-5.099
74255,10.085,-0.192,-0.031,-29.26,8.779,-3.878
74305,9.511,-0.189,-0.184,-18.244,14.504,-1.603
74355,9.549,-0.414,0.266,2.053,17.076,0.221
74405,9.568,-0.359,0.371,4.267,14.802,5.443
74456,10.184,-0.091,0.069,22.855,12.702,6.985
74505,10.236,-0.321,0.378,31.435,11.061,8.985
74555,9.779,-0.62,0.307,29.565,8.718,7.244
74605,9.81,-0.572,0.388,46.458,5.634,3.992
74655,9.812,-0.12,0.443,48.649,1.168,2.466
74705,9.822,-0.692,0.711,51.282,-1.176,-0.122
74756,9.554,-0.201,0.901,36.29,-7.672,-3.756
74805,9.803,-0.393,0.891,44.168,-14.282,-6.626
74855,10.243,-0.292,0.517,48.771,-16.244,-6.313
74905,10.5,-0.151,0.237,57.947,-16.0,-7.534
74955,10.552,-0.338,0.457,46.168,-14.26,-7.237
75005,10.394,-0.256,0.541,36.954,-14.496,-8.0
75056,10.351,-0.584,0.374,37.71,-13.084,-7.832
75105,9.75,-0.148,0.275,25.656,-9.863,-9.053
75155,9.891,-0.747,0.285,51.351,-6.328,-8.74
75205,10.052,-0.479,0.865,14.206,-4.16,-11.992
75255,10.651,-0.548,1.008,11.443,-7.237,-10.58
75305,10.054,-0.261,0.917,7.397,-8.916,-8.313
75356,10.105,-0.125,0.158,-5.855,-3.382,-3.458
75405,9.412,-0.592,0.536,6.763,4.397,-2.878
75455,9.46,-0.122,0.778,2.542,9.008,-1.137
75505,9.501,-0.275,1.15,11.466,7.656,3.725
75555,10.179,-1.099,1.157,20.382,4.084,3.046
75606,10.986,-1.042,1.365,-7.817,0.221,-5.557
75656,10.859,-0.364,0.881,-10.977,0.183,-7.489
75705,10.493,-0.012,0.695,-2.87,2.977,-3.893
75755,10.327,-0.616,0.821,5.931,5.687,-3.733
75805,9.688,-0.194,1.389,-17.55,8.855,-7.298
75855,12.916,-0.513,0.936,-7.641,10.977,4.786
75906,10.188,-0.072,1.214,13.061,9.763,8.458
75956,9.75,-0.383,0.182,19.214,9.153,3.031
76006,10.169,-0.719,1.705,22.481,14.679,3.122
76056,9.92,-0.651,-0.11,43.069,0.45,11.275
76106,9.92,-0.599,0.575,34.191,2.344,-1.107
76156,9.894,0.407,2.108,-18.511,1.954,-1.504
76207,10.021,0.443,-0.39,31.878,-1.939,3.588
76256,9.377,1.827,1.145,48.389,5.176,16.87
76306,9.357,-1.492,4.009,45.634,-6.099,17.786
76356,15.596,-2.45,-2.908,8.405,-10.053,4.573
76406,9.654,-0.989,0.587,-7.878,1.351,6.206
76456,9.515,-1.02,1.138,-1.931,2.084,5.534
76507,9.556,-1.063,1.233,19.824,-0.336,-1.618
76556,9.858,0.026,0.86,1.496,0.855,-2.435
76606,10.119,-0.745,0.759,-2.817,-0.817,0.687
76656,10.09,-0.678,0.893,2.687,0.359,-1.84
76706,10.088,-0.596,0.52,6.977,3.176,-3.458
76756,10.006,-0.764,1.068,10.908,1.71,-6.527
76807,10.085,-0.51,1.071,11.046,0.748,-2.626
76856,10.107,-0.575,0.92,15.435,-0.16,0.069
76906,10.069,-0.647,0.821,-6.321,-0.611,0.122
76956,10.045,-0.843,0.56,-4.16,1.038,1.328
77006,9.951,-0.817,1.193,2.427,0.282,0.466
77057,10.129,-0.316,0.802,-4.168,0.527,1.351
77107,9.908,-1.262,0.563,-9.16,-1.344,2.344
77156,9.978,-0.378,1.061,-7.817,1.015,0.0
77206,10.014,-0.783,0.627,-4.687,2.267,-1.756
77256,10.639,-0.805,0.517,-42.794,8.481,-3.664
77306,9.987,-0.819,2.163,22.076,-7.71,-1.313
77357,9.98,-0.769,0.534,-34.481,-1.023,2.672
77407,10.517,-0.721,2.23,-33.122,-4.382,-6.298
77457,10.335,-0.314,1.696,-19.023,-12.71,0.191
77507,13.649,0.069,-1.787,-2.748,-17.214,1.237
77557,15.165,-0.786,-0.091,-31.0,-4.527,12.328
77607,13.426,-1.308,0.659,-14.153,1.504,13.916
77658,12.212,0.096,1.37,-60.885,0.756,22.244
77707,10.497,-0.048,1.334,-66.916,-9.137,34.0
77757,9.274,0.714,0.807,-73.374,-18.863,46.74
77807,8.1,-1.006,0.56,-72.389,-22.405,42.748
77857,7.935,-1.312,0.378,-75.855,-21.031,30.763
77907,7.908,-1.574,0.649,-73.626,-20.641,9.504
77958,7.99,-2.0,-0.069,-76.992,-16.183,-9.336
78007,7.863,-0.35,-0.189,-70.985,-8.061,-19.687
78057,7.726,-0.381,-0.79,-72.115,3.947,-21.45
78107,6.845,-0.57,-0.505,-50.168,17.198,-24.076
78157,7.729,-0.63,-0.951,-66.366,30.588,-21.672
78208,7.645,-0.968,-0.11,-22.84,39.023,-33.252
78258,7.712,0.582,0.596,-51.885,33.061,-25.16
78307,7.446,-0.254,0.259,-50.969,28.916,-22.092
78357,6.986,-0.05,0.208,-33.427,26.916,-25.252
78407,7.197,-1.911,-0.247,-31.313,24.0,-23.435
78457,6.553,1.09,-0.158,41.221,25.435,-27.29
78508,7.108,-0.163,-0.539,-48.359,26.328,-15.855
78558,6.72,1.198,-0.043,-14.809,31.099,-10.588
78607,6.627,1.871,0.877,-63.481,21.779,7.45
78657,7.75,1.205,-0.249,-39.679,17.588,28.733
78707,9.721,0.357,0.026,-42.55,16.771,37.145
78757,11.606,-0.52,0.46,-52.183,12.794,35.748
78808,14.083,-0.165,0.323,-56.641,3.344,31.099
78857,14.89,-1.66,0.347,-29.733,0.221,14.588
78907,14.097,-1.073,0.034,3.977,-2.55,-5.244
78957,13.573,-0.457,-0.196,-1.458,-0.511,-10.29
79007,12.727,0.031,0.01,-13.634,5.893,-15.221
79057,11.982,0.278,0.927,-22.519,2.985,-14.275
79108,12.023,-0.297,1.03,-23.069,-7.634,-11.672
79157,11.637,0.412,1.672,-33.382,-15.924,-13.458
79207,11.673,0.01,0.999,-33.649,-27.84,-8.725
79257,11.254,-0.635,-0.125,-15.061,-25.901,-9.137
79307,9.875,-0.398,-0.256,-14.954,-18.763,-9.229
79357,9.743,1.056,0.73,-2.427,-12.969,-4.176
79408,10.227,-0.285,-0.081,-30.397,-10.275,3.153
79457,10.373,-0.113,0.647,-38.908,-8.725,3.534
79507,10.646,0.34,0.129,-32.16,-5.038,3.267
79557,3.892,-1.42,-4.131,-13.832,-10.718,-4.466
79607,8.962,-1.217,1.964,21.84,1.634,-8.267
79657,9.875,-0.216,-0.273,3.405,5.061,-2.458
79708,10.217,2.184,-0.366,-9.115,7.145,6.42
79757,9.508,-1.035,1.423,1.87,5.344,9.71
79807,10.385,0.137,1.035,38.366,-4.053,2.771
79857,9.669,0.738,-1.38,69.145,1.832,3.725
79907,9.853,-0.91,0.623,83.878,15.878,1.313
79958,9.99,0.838,0.386,52.542,6.924,1.282
80008,10.394,-1.796,0.388,46.954,6.313,0.748
80057,9.901,1.212,1.454,-47.153,-13.878,-1.832
80107,10.073,-1.274,-0.958,-98.13,-14.84,-4.061
80157,9.774,1.059,-2.536,-38.649,0.511,-1.542
80207,10.124,0.481,1.703,-18.603,5.832,6.412
80258,9.899,-0.292,-1.205,-0.504,-0.962,13.221
80308,9.506,-2.409,0.438,-51.786,5.924,5.145
80358,10.073,-1.212,-0.05,-6.618,8.733,-8.634
80408,9.511,1.004,1.159,-6.908,7.779,-5.847
80458,10.303,-0.889,1.269,-3.863,5.298,8.344
80508,9.872,-1.384,0.328,-38.573,5.183,-0.336
80559,10.5,-0.036,0.817,-50.756,9.489,-10.229
80608,9.836,0.249,1.406,6.931,-4.084,-1.786
80658,10.193,0.096,-0.438,24.802,3.45,3.763
80708,8.246,0.031,0.237,9.206,1.504,4.214
80758,9.731,-0.683,0.639,-6.351,0.489,-0.046
80808,9.872,-0.41,1.159,-2.58,-6.916,2.183
80859,10.636,-1.008,0.951,-10.214,-6.954,-5.771
80908,10.167,-0.795,0.254,0.298,-11.145,-6.26
80958,9.772,0.802,-0.213,0.267,-5.328,-3.794
81008,10.093,0.58,-0.774,2.802,3.649,5.962
81058,10.179,-1.027,0.359,-1.443,1.328,4.718
81108,10.069,-0.702,0.563,1.58,0.771,-1.626
81159,9.166,1.056,-0.148,-21.718,1.42,-5.405
81208,8.957,-1.056,-0.041,8.901,-0.878,-2.992
81258,10.78,-0.172,0.893,19.45,3.153,0.351
81308,10.378,-0.769,-0.632,14.183,-2.344,-6.267
81358,8.969,0.673,1.871,-17.458,2.473,5.321
81409,10.782,-0.941,-0.455,-12.359,1.863,12.29
81459,10.246,-0.467,0.503,5.947,3.336,12.427
81508,9.35,-1.305,0.901,-13.611,6.878,3.885
81558,9.733,-0.812,-0.199,-11.939,-5.382,-7.427
81608,10.294,-0.192,0.302,37.74,1.031,-1.321
81658,9.309,0.51,0.302,-1.87,0.359,2.985
81709,9.798,-0.96,-0.18,4.489,2.183,3.206
81759,9.666,-1.499,0.259,-27.405,13.275,-2.023
81809,10.44,-1.188,0.91,-1.618,2.74,-5.427
81859,8.967,0.304,0.635,10.458,7.565,-3.763
81909,8.816,-0.592,0.433,-0.489,6.954,-1.031
81959,5.14,-0.651,0.331,-46.71,7.832,2.145
82010,11.053,-0.977,0.263,-35.023,6.145,-12.511
82059,10.014,-1.485,-1.42,-43.443,17.588,-18.412
82109,11.012,1.887,0.426,-12.069,17.366,-12.832
82159,10.102,1.044,5.049,-60.389,11.542,19.725
82209,9.956,-2.369,-5.65,-50.885,-12.779,-3.282
82259,9.738,-0.826,1.487,-13.748,5.985,-10.435
82310,10.129,0.857,4.22,-0.229,-12.763,-5.786
82359,10.449,1.356,0.046,23.267,9.13,0.229
82409,10.457,-0.11,3.628,-5.26,-5.893,11.107
82459,10.018,-0.22,-0.132,-56.809,4.198,9.16
82509,10.021,-1.15,0.886,-59.221,4.878,1.427
82560,9.621,-0.898,0.726,-53.802,-5.122,-4.687
82610,10.366,-0.055,1.123,-25.733,-4.336,1.74
82659,9.97,-0.922,-0.151,2.908,-9.046,2.031
82709,10.059,-0.501,-0.125,-43.87,-14.664,-4.519
82759,9.975,-0.17,-0.141,-13.405,-15.641,-0.092
82809,10.145,0.089,0.994,-89.015,-12.695,5.405
82860,10.076,-0.644,0.582,-2.916,-2.183,8.267
82910,10.028,-0.424,0.51,-30.13,11.748,4.023
82959,9.901,-1.688,0.517,-77.534,15.779,3.221
83009,10.229,0.335,-0.01,-53.137,18.389,5.252
83059,10.035,-0.975,-1.372,53.473,15.252,0.893
83109,9.374,-1.813,0.048,-4.687,40.046,-7.489
83160,10.998,-0.163,4.38,-94.656,37.489,-13.748
83209,10.464,0.271,1.765,-38.405,16.275,2.344
83259,8.337,1.518,8.11,-54.527,2.29,-6.725
83309,10.916,-1.226,-3.949,-91.931,4.29,-2.427
83359,8.969,-0.754,8.634,-30.221,9.962,-2.504
83409,10.114,-0.002,1.279,-11.954,-2.763,11.84
83460,9.86,-2.795,0.814,-14.511,4.221,-2.298
83509,10.057,-1.449,0.251,-34.115,11.992,-5.573
83559,9.903,-0.35,2.338,-7.565,13.626,2.962
83609,10.038,-1.653,1.947,-8.695,14.664,7.45
83659,9.647,-1.787,3.719,-3.779,3.565,-2.107
83709,9.973,-0.405,2.282,1.412,1.198,-5.71
83760,9.767,0.273,3.59,4.313,-14.725,3.58
83809,10.289,-0.254,0.948,37.137,-19.611,11.313
83859,9.982,-1.861,-0.263,76.336,-17.176,11.931
83909,10.026,-1.315,0.683,5.779,5.519,-5.626
83959,9.956,-0.673,2.069,10.298,4.817,-2.763
84009,10.102,-0.216,1.799,24.076,5.382,3.58
84060,10.239,-0.474,1.095,44.069,-1.55,10.275
84109,9.887,-1.212,2.096,55.16,-0.015,12.878
84159,9.975,-1.815,1.123,18.924,2.916,2.092
84209,10.011,-1.056,1.344,20.405,8.618,1.221
84259,10.318,-0.824,2.46,5.115,5.817,-2.756
84310,10.059,-1.188,2.285,43.71,1.382,3.702
84360,10.023,0.036,1.794,28.473,1.038,4.137
84409,9.987,-2.076,1.796,45.878,-2.664,4.038
84459,10.011,-0.56,1.863,20.511,4.313,-0.153
84509,9.815,-0.486,2.045,40.412,0.649,1.733
84559,9.899,-1.358,2.239,-15.435,5.16,-2.344
84610,10.083,-0.484,1.095,-20.977,10.832,1.359
84660,9.547,-1.911,4.941,-13.557,-3.458,1.198
84710,9.911,-1.684,1.169,68.641,-19.382,2.374
84760,10.026,-0.271,1.741,44.137,-22.267,-0.603
84810,9.915,-1.322,2.486,-15.618,-22.16,-14.496
84860,10.138,0.333,-1.392,-59.733,-4.702,-15.992
84911,9.923,-1.181,1.71,-34.641,-2.267,-5.26
84960,9.927,-1.741,0.812,-2.611,-3.397,-15.122
85010,9.923,-0.905,1.329,14.107,-3.916,-16.664
85060,9.518,0.357,2.16,4.13,-6.053,-3.084
85110,9.932,-0.491,1.008,-2.832,-8.481,-9.107
85160,10.057,-0.048,0.685,-3.275,-4.58,-5.076
85211,10.172,0.244,1.269,-3.298,-2.107,-3.076
85260,10.212,-0.232,1.432,-3.282,-1.214,-3.0
85310,10.069,-0.735,0.666,-3.191,-3.542,-5.809
85360,10.215,1.106,-0.39,-1.443,3.313,-1.115
85410,10.033,-0.989,1.926,-15.71,3.878,-5.26
85460,9.966,1.93,0.814,4.542,-1.046,-1.412
85511,10.052,0.707,2.227,9.191,4.168,17.878
85560,10.488,-0.433,2.1,14.786,-9.267,-1.481
85610,9.908,-1.528,1.315,46.954,-15.015,-7.794
85660,9.975,-1.047,0.098,49.328,-10.298,-8.397
85710,10.241,1.655,0.489,91.053,-3.519,-8.382
85761,10.014,0.927,1.051,98.84,-2.229,1.458
85811,10.117,-0.429,0.611,78.496,1.794,2.656
85860,10.131,0.759,1.274,19.023,-4.359,3.008
85910,10.131,-1.341,0.692,4.16,2.351,5.137
85960,10.327,-0.441,0.903,-4.565,-4.237,3.275
86010,10.045,-0.759,0.568,1.405,-1.015,2.344
86061,10.241,0.443,0.968,36.504,2.977,2.802
86111,9.958,-1.566,0.412,34.031,0.412,2.191
86161,9.69,-0.177,0.764,18.656,-1.076,-0.405
86211,10.725,-0.237,0.73,9.58,4.534,3.084
86261,10.255,-0.201,1.193,-31.58,-3.649,3.573
86311,11.161,-0.984,0.113,-32.481,8.015,-2.038
86362,10.234,-0.017,1.602,15.473,9.252,-3.527
86411,9.872,-0.697,1.157,41.725,4.458,-4.351
86461,9.508,-0.34,1.221,23.443,0.221,-4.282
86511,9.367,0.22,1.078,-3.695,-5.023,-1.855
86561,10.387,-1.413,0.759,-18.237,-7.305,-1.435
86611,9.597,0.707,1.174,10.87,1.244,2.733
86662,9.468,-1.708,-0.148,16.26,-1.679,-7.893
86711,9.985,0.127,2.041,15.504,1.985,-4.725
86761,9.913,0.285,-0.297,-4.924,-3.45,-9.359
86811,10.823,-0.584,1.442,-13.481,-7.16,-0.069
86861,10.385,0.534,0.247,-5.664,-2.733,-5.366
86912,9.439,0.103,0.872,45.893,-5.718,1.031
86962,11.419,-0.996,0.73,-4.115,-6.252,-4.855
87011,8.974,1.224,0.299,-62.779,-3.061,-3.16
87061,12.452,-2.594,1.497,-14.687,-7.992,-10.305
87111,6.253,3.286,-0.065,-1.206,12.771,-1.847
87161,14.188,-3.755,2.555,34.695,-0.122,4.198
87212,7.032,2.199,-0.838,-36.695,-0.679,-4.351
87262,9.46,-2.381,0.206,5.099,26.443,29.603
87311,14.976,0.465,1.32,23.603,-9.977,-24.0
87361,2.098,0.999,-3.284,15.687,32.542,61.573
87411,19.619,-7.211,5.506,-21.122,-10.496,-10.313
87461,4.39,1.878,-1.19,-54.168,2.13,18.374
87512,10.325,-3.248,1.459,-33.809,-5.137,18.42
87561,10.399,-1.411,-0.716,103.267,-12.351,5.374
87611,8.806,0.05,0.807,1.962,1.221,8.389
87661,10.775,-1.348,0.206,-63.183,4.198,3.336
87711,11.015,-1.636,1.667,-57.939,1.824,-7.015
87826,10.284,0.086,0.735,9.611,-7.42,-2.206
87876,10.418,-0.776,0.4,-23.351,-6.756,1.214
87926,9.853,-0.57,0.223,-23.412,-2.389,-1.305
87976,9.832,-1.217,0.263,23.977,2.061,-0.595
88027,9.333,-1.387,0.642,16.939,8.466,-9.313
88076,10.746,-2.991,-0.366,29.969,0.634,-15.832
88126,9.633,-0.517,0.259,13.466,2.466,-15.099
88176,10.44,-0.927,0.285,23.588,-4.183,-13.916
88226,10.291,0.417,-0.63,5.71,2.275,-7.198
88276,10.04,0.22,-0.026,-5.206,10.298,-3.603
88327,10.009,-0.697,1.516,15.313,4.908,-6.145
88376,10.222,-0.934,0.939,28.55,-2.58,-8.595
88426,9.899,-1.03,-0.096,6.359,-0.901,-11.672
88476,10.085,-0.038,0.481,-21.115,7.336,-8.779
88526,9.973,0.34,-0.132,-29.863,8.443,-4.557
88577,10.016,-1.018,1.485,1.26,10.87,-5.214
88627,9.896,0.953,-0.472,12.618,7.481,-3.725
88676,10.232,0.0,1.976,5.214,15.168,0.985
88726,9.927,-1.195,1.265,30.771,-1.679,2.885
88776,10.006,-0.074,1.214,-8.947,2.145,-6.481
88826,10.04,-0.695,1.14,-5.794,3.466,-4.351
88877,10.03,-0.314,0.436,-20.176,7.443,-7.374
88927,9.961,-0.297,1.162,-9.099,11.237,-4.878
88977,10.081,0.175,1.576,-3.244,9.679,-1.924
89027,9.927,-0.232,1.562,48.55,3.771,-2.092
89077,10.033,0.072,1.044,-8.748,-1.939,-0.786
89127,10.102,-0.469,1.449,-3.0,-1.931,0.046
89178,9.956,-0.429,0.347,-3.344,4.359,-1.74
89227,10.054,-0.043,1.286,-3.87,8.824,-3.466
89277,10.138,-0.474,1.916,-2.992,6.458,-5.473
89327,10.057,0.429,1.432,-3.237,3.969,-3.534
89377,9.949,0.148,2.191,-3.344,2.328,-3.008
89427,10.03,0.199,1.406,-3.489,0.397,-0.412
89478,10.083,0.333,1.897,-3.344,-1.603,1.168
89527,10.102,-0.364,0.721,-3.046,-1.802,1.145
89577,10.77,0.345,1.636,-3.122,0.55,-0.252
89627,10.193,-0.014,2.251,19.557,2.908,-1.924
89677,7.796,-0.913,-0.73,-2.618,3.748,-2.198
89728,10.117,-0.656,1.159,-5.664,3.939,-5.206
89778,10.004,0.151,1.42,-5.053,6.321,-9.664
89827,9.836,1.123,2.211,0.626,4.183,-2.13
89877,10.021,0.558,2.012,4.618,-2.046,5.656
89927,9.776,-0.278,3.475,10.038,-8.763,8.389
89977,10.303,-2.187,-0.192,-1.496,-6.275,3.275
90028,10.105,-0.194,1.051,-3.687,2.939,-2.71
90078,10.035,-0.168,1.339,-4.069,3.893,-3.489
90127,10.006,0.316,1.997,-3.084,0.939,-1.137
90177,10.073,-0.249,1.037,-3.069,-1.076,0.595
90227,10.018,0.328,1.799,-2.0,-2.626,1.542
90277,9.944,-1.394,1.339,-1.527,0.168,-1.977
90328,9.992,-0.4,1.677,-1.962,-0.924,0.206
90377,10.133,-0.824,0.608,-0.702,1.672,-1.206
90427,9.968,-0.4,1.341,2.397,-0.748,-0.496
90477,10.39,1.169,-0.563,1.237,2.534,-0.977
90527,9.958,-0.244,0.975,3.069,-0.351,0.328
90577,10.15,0.45,1.437,-3.321,3.473,-2.092
90628,10.04,-0.781,1.157,-0.206,1.221,2.443
90677,10.088,0.941,1.48,0.473,4.26,3.504
90727,9.947,-1.135,1.14,-2.84,2.16,-0.832
90777,9.877,0.057,2.134,2.412,0.901,3.084
90827,10.198,0.036,0.472,-7.908,2.305,-5.656
90877,9.963,0.024,2.407,0.672,-0.603,3.977
90928,10.255,0.259,0.896,-1.809,5.008,1.137
90977,9.867,-0.067,1.401,-3.931,0.84,-1.939
91027,9.808,0.177,2.029,-2.313,1.603,-0.42
91077,10.224,-0.441,0.302,-6.168,0.832,-5.405
91127,10.121,0.139,2.424,-3.336,5.031,2.511
91177,8.596,-0.733,2.548,-2.298,5.458,2.397
91228,9.942,0.924,1.959,-2.511,-0.916,-0.328
91277,9.621,-0.534,1.449,-3.603,2.565,-2.443
91327,10.114,0.429,2.088,-2.115,-5.229,-3.214
91377,10.22,-0.026,0.968,-5.511,3.191,-3.649
91427,9.935,0.922,2.735,-1.13,1.588,3.756
91478,10.308,-0.536,1.279,-6.656,0.191,-4.252
91528,10.16,0.127,2.534,0.885,2.16,4.168
91577,10.081,-0.263,2.151,-3.336,-1.687,-3.458
91627,10.006,-1.202,2.749,-8.397,-6.374,-12.321
91677,10.756,2.026,0.572,-6.397,-4.534,-11.008
91727,9.808,-0.719,1.997,-0.382,3.618,5.985
91778,10.059,-0.053,1.411,-3.206,-0.145,-3.878
91828,9.856,-0.4,1.95,-1.58,-4.244,-2.824
91878,10.131,0.608,0.438,-3.42,0.634,-1.298
91928,10.045,0.132,1.401,-3.046,-0.443,0.214
91978,9.997,0.108,1.454,-2.885,0.893,-1.099
92028,9.999,-0.117,1.164,-3.153,0.496,-0.672
92079,10.081,-0.026,1.375,-2.786,0.176,-0.634
92128,10.006,0.069,1.444,-2.962,0.779,-1.031
92178,10.069,0.065,1.473,-3.183,0.756,-0.916
92228,10.133,0.139,1.471,-3.496,-0.534,-0.023
92278,10.071,-0.707,1.77,-3.336,-1.847,-0.397
92328,10.045,-0.34,1.097,-3.214,-0.939,-0.687
92379,10.124,-0.105,1.135,-3.351,2.069,-1.489
92428,9.98,0.031,1.473,-3.382,2.649,-1.611
92478,10.033,-0.01,1.566,-3.26,-0.122,-0.863
92528,10.069,-0.069,1.289,-3.252,-0.42,-0.542
92578,10.04,-0.022,1.15,-3.153,1.084,-1.168
92628,10.052,0.038,1.334,-3.252,1.824,-1.344
92679,10.026,0.048,1.576,-3.13,0.832,-1.061
92728,10.066,0.012,1.308,-3.191,0.038,-0.664
92778,10.081,-0.057,0.639,-3.198,2.748,-1.374
92828,10.059,0.584,2.144,-3.366,0.817,-0.924
92878,10.105,-0.189,1.277,-3.466,-2.489,0.023
92929,10.069,-0.168,0.903,-3.344,0.756,-0.885
92979,10.129,-0.022,1.303,-3.137,3.42,-1.649
93028,10.093,0.132,1.832,-3.466,1.962,-1.573
93078,10.069,0.057,1.315,-3.16,-0.885,-0.573
93128,10.057,-0.024,1.083,-3.053,0.145,-0.794
93178,10.002,-0.038,1.245,-3.237,2.122,-1.282
93229,10.09,0.048,1.511,-3.198,1.511,-1.267
93279,10.045,0.01,1.54,-3.412,-0.099,-0.649
93329,10.105,-0.019,1.253,-3.328,0.023,-0.802
93379,10.088,0.05,1.396,-3.206,-1.473,-0.191
93429,10.1,-0.074,0.848,-3.351,2.023,-1.305
93479,9.942,0.084,1.473,-3.244,3.611,-1.794
93530,10.054,0.216,1.844,-3.26,0.168,-0.687
93579,10.023,0.065,1.174,-3.321,-1.298,-0.13
93629,10.117,-0.11,0.996,-3.389,0.802,-0.939
93679,10.059,0.005,1.317,-3.344,2.382,-1.42
93729,10.018,0.046,1.626,-3.29,0.893,-0.924
93779,10.05,-0.177,1.411,-3.412,-0.412,-0.244
93830,10.15,-0.29,1.123,-3.58,0.252,-0.42
93879,10.069,-0.163,1.336,-3.336,1.328,-1.282
93929,10.124,0.084,1.406,-3.26,1.267,-1.0
93979,10.004,0.17,1.329,-3.405,0.435,-0.763
94029,10.004,-0.046,1.245,-3.328,0.679,-0.962
94080,10.162,-0.031,1.36,-3.26,1.092,-1.252
94130,10.038,0.055,1.358,-3.336,0.931,-1.092
94179,10.093,0.012,1.348,-3.214,0.557,-0.847
94229,10.102,-0.012,1.181,-3.473,0.855,-1.038
94279,10.038,0.091,1.317,-3.42,1.107,-1.061
94329,10.016,0.007,1.413,-3.122,0.779,-0.931
94380,10.076,-0.046,1.365,-3.153,0.725,-1.061
94430,9.978,0.065,1.339,-3.443,0.58,-0.893
94479,10.131,0.053,1.272,-3.29,0.809,-0.954
94529,10.038,0.0,1.423,-3.237,0.802,-1.069
94579,10.05,0.184,1.32,-3.26,0.542,-1.153
94629,10.112,0.153,1.346,-3.298,0.824,-0.992
94680,10.064,0.005,1.444,-3.405,0.893,-1.053
94729,10.045,-0.036,1.389,-3.374,0.786,-0.847
94779,10.002,-0.012,1.356,-3.206,0.74,-1.053
94829,9.994,0.038,1.31,-3.198,0.863,-1.046
94879,10.016,-0.007,1.344,-3.237,0.679,-1.0
94929,9.98,0.024,1.334,-3.275,0.748,-0.84
94980,10.011,0.017,1.37,-3.305,0.763,-1.061
95029,10.035,0.0,1.277,-3.237,0.718,-1.053
95079,10.026,0.069,1.339,-3.122,0.664,-0.924
95129,10.114,-0.05,1.341,-3.435,0.916,-1.0
95179,10.081,0.038,1.329,-3.389,0.924,-0.908
95229,10.085,0.038,1.454,-3.382,0.878,-0.985
95280,10.105,0.029,1.339,-3.389,0.55,-0.863
95329,10.095,-0.079,1.332,-3.145,0.756,-0.992
95379,10.076,0.014,1.406,-3.153,0.725,-1.061
95429,10.064,-0.031,1.387,-3.107,0.626,-0.916
95479,10.129,-0.002,1.348,-3.321,0.809,-0.847
95529,10.109,0.007,1.346,-3.305,0.611,-0.939
95580,10.09,-0.005,1.336,-3.321,0.786,-0.985
95629,9.978,0.062,1.396,-3.099,0.794,-1.099
95679,10.035,-0.034,1.344,-3.214,0.672,-1.076
95729,10.105,-0.014,1.322,-3.359,0.832,-1.092
95779,10.009,-0.065,1.32,-3.145,0.733,-0.901
95830,10.042,0.017,1.202,-3.382,0.565,-0.916
95880,10.05,-0.022,1.315,-3.206,0.763,-1.084
95929,10.061,-0.002,1.312,-3.435,0.718,-0.87
95979,10.057,0.031,1.329,-3.221,0.924,-1.115
96029,10.052,0.012,1.37,-3.382,0.809,-0.969
96079,10.076,0.024,1.322,-3.473,0.901,-0.977
96130,10.109,-0.01,1.351,-3.374,0.687,-1.0
96180,10.126,0.019,1.365,-3.45,0.847,-0.939
96230,10.006,0.029,1.384,-3.366,0.74,-0.977
96280,10.028,0.048,1.253,-3.229,0.626,-1.122
96330,10.071,-0.007,1.339,-3.122,0.924,-0.84
96380,10.026,0.002,1.403,-3.382,0.786,-0.924
96431,10.038,0.057,1.394,-3.214,0.817,-1.023
96480,10.052,-0.053,1.387,-3.206,1.031,-1.015
96530,9.987,0.017,1.353,-3.153,0.687,-0.893
96580,10.073,-0.043,1.408,-3.321,0.794,-0.855
96630,9.97,0.012,1.346,-3.29,0.595,-0.916
96680,10.126,-0.034,1.324,-3.412,0.763,-0.962
96731,10.006,0.031,1.303,-3.29,0.817,-0.954
96780,10.078,0.0,1.312,-3.145,0.527,-0.855
96830,10.04,-0.019,1.296,-3.282,0.832,-1.16
96880,10.057,-0.034,1.327,-3.305,0.756,-1.084
96930,10.129,0.005,1.308,-3.321,0.641,-0.992
96980,10.042,-0.057,1.3,-3.214,0.824,-0.954
97031,10.04,0.06,1.392,-3.275,0.786,-1.023
97080,10.047,0.034,1.358,-3.092,0.74,-0.939
97130,10.002,0.046,1.38,-3.198,0.779,-0.87
97180,10.073,0.005,1.334,-3.221,0.771,-1.046
97230,10.052,0.022,1.322,-3.298,0.847,-1.115
97281,10.052,0.014,1.308,-3.183,0.733,-0.893
97331,10.09,0.005,1.339,-3.29,0.74,-1.122
97380,10.073,0.012,1.356,-3.344,0.58,-1.015
97430,10.05,0.053,1.353,-3.496,0.71,-0.855
97480,10.078,0.012,1.356,-3.298,0.855,-1.107
97530,10.035,0.055,1.322,-3.473,0.885,-0.954
97581,10.078,0.046,1.348,-3.115,0.802,-1.084
97631,10.088,-0.019,1.339,-3.29,0.794,-1.015
97681,10.009,0.05,1.269,-3.26,0.786,-0.939
97731,10.112,0.05,1.344,-3.206,0.84,-0.84
97781,10.071,0.007,1.356,-3.42,0.763,-0.969
97831,10.085,-0.038,1.356,-3.153,0.695,-0.985
97882,10.093,0.022,1.358,-3.282,0.718,-0.954
97931,10.021,0.014,1.344,-3.183,0.771,-0.992
97981,10.064,-0.012,1.305,-3.26,0.832,-1.076
98031,10.088,0.053,1.394,-3.344,0.618,-1.031
98081,10.066,0.067,1.312,-3.344,0.756,-1.008
98131,10.126,-0.017,1.36,-3.473,0.679,-1.046
98182,10.069,-0.048,1.317,-3.26,0.779,-0.969
98231,10.071,0.029,1.396,-3.183,0.679,-0.916
98281,10.083,-0.007,1.332,-3.412,0.725,-0.924
98331,9.978,-0.041,1.322,-3.336,0.656,-0.893
98381,10.083,0.034,1.344,-3.214,1.0,-0.924
98432,10.054,0.057,1.403,-3.328,0.84,-0.901
98482,10.05,0.002,1.341,-3.221,0.618,-1.031
98531,9.999,-0.002,1.339,-3.252,0.733,-0.969
98581,10.014,0.043,1.32,-3.405,0.794,-1.008
98631,10.033,0.05,1.272,-3.336,0.817,-0.931
98681,10.066,-0.002,1.399,-3.229,0.74,-1.015
98732,10.073,0.012,1.257,-3.229,0.824,-0.939
98782,10.066,-0.029,1.396,-3.26,0.519,-0.992
98831,10.073,0.031,1.334,-3.214,0.908,-1.092
98881,10.004,0.022,1.473,-3.229,0.824,-0.878
98931,10.059,-0.053,1.255,-3.214,0.802,-1.122
98981,10.035,-0.038,1.303,-3.145,0.779,-1.076
99032,10.069,0.014,1.243,-3.282,0.824,-1.084
99081,9.987,-0.017,1.332,-3.397,0.832,-0.824
99131,10.069,-0.022,1.344,-3.168,0.855,-0.969
99181,10.088,0.046,1.332,-3.397,0.626,-1.031
99231,10.102,-0.048,1.432,-3.275,0.672,-0.87
99281,10.093,-0.022,1.324,-3.275,0.809,-0.985
99332,10.16,0.074,1.303,-3.168,0.634,-0.947
99381,9.99,0.053,1.341,-3.252,0.817,-0.954
99431,10.129,-0.065,1.372,-3.313,0.611,-1.0
99481,10.083,0.017,1.348,-3.237,1.008,-0.962
99531,10.006,0.065,1.293,-3.115,0.634,-1.046
99581,10.064,-0.084,1.38,-3.13,0.58,-0.809
99632,10.05,0.036,1.341,-3.176,0.481,-0.893
99681,10.095,0.057,1.334,-3.145,0.733,-0.954
99731,9.987,0.019,1.291,-3.366,0.771,-1.061
99781,10.09,-0.065,1.329,-3.168,0.641,-1.038
99831,10.093,0.014,1.348,-3.275,0.794,-0.954
99881,10.026,0.026,1.324,-3.328,0.779,-0.962
99932,10.018,0.017,1.37,-3.237,0.832,-0.985
99981,10.026,-0.014,1.377,-3.046,0.733,-1.099
100031,10.124,0.0,1.303,-3.321,0.611,-1.053
100081,10.05,0.002,1.322,-3.198,0.855,-1.046
100131,10.081,-0.053,1.392,-3.359,0.687,-0.985
100182,10.093,0.007,1.394,-3.336,0.817,-0.924
100232,10.057,-0.012,1.344,-3.374,0.679,-0.908
100281,10.061,-0.024,1.334,-3.344,0.542,-0.969
100331,10.014,0.072,1.346,-3.328,0.672,-1.008
100381,10.035,-0.029,1.317,-3.076,0.687,-0.977
100431,10.059,0.012,1.368,-3.206,0.916,-1.015
100482,10.121,0.057,1.3,-3.328,0.725,-0.847
100532,9.978,0.081,1.322,-3.191,0.725,-1.076
100582,9.999,0.048,1.334,-3.336,0.618,-1.145
100632,10.093,0.022,1.38,-3.16,0.901,-0.924
100682,9.997,-0.002,1.312,-3.26,0.817,-0.885
100732,10.03,-0.038,1.327,-3.137,0.794,-0.847
100783,10.035,0.029,1.358,-3.115,0.847,-1.107
100832,10.09,0.036,1.26,-3.336,0.916,-1.053
100882,10.121,0.007,1.389,-3.191,0.702,-1.008
100932,10.059,-0.024,1.375,-3.336,0.84,-0.84
100982,10.126,0.043,1.324,-3.313,0.718,-0.824
101032,10.145,0.072,1.324,-3.313,0.733,-0.794
101083,10.109,-0.01,1.324,-3.374,0.748,-0.992
101132,10.026,0.038,1.38,-3.267,0.916,-1.046
101182,10.028,-0.079,1.279,-3.389,0.588,-1.069
101232,10.035,0.029,1.37,-3.344,0.832,-0.901
101282,10.129,-0.01,1.396,-3.336,0.771,-0.992
101332,10.04,0.007,1.413,-3.382,0.74,-1.038
101383,9.994,0.0,1.286,-3.313,0.786,-0.87
101432,10.102,0.022,1.324,-3.26,0.962,-0.969
101482,10.078,0.024,1.317,-3.29,0.557,-0.931
101532,10.126,0.014,1.358,-3.244,0.779,-0.855
101582,10.081,0.022,1.332,-3.305,0.626,-0.962
101633,10.148,0.081,1.341,-3.237,0.847,-0.947
101683,10.145,0.055,1.279,-3.267,0.885,-0.878
101732,10.05,-0.014,1.36,-3.389,0.725,-1.115
101782,10.059,-0.026,1.382,-3.382,0.74,-1.023
101832,10.033,-0.022,1.353,-3.366,0.885,-0.916
101882,10.083,0.002,1.293,-3.305,0.824,-1.092
101933,10.15,-0.017,1.351,-3.321,0.794,-0.977
101983,10.073,0.014,1.269,-3.374,0.611,-0.947
102033,9.958,-0.024,1.353,-3.084,0.679,-0.992
102083,10.05,-0.046,1.341,-3.061,0.748,-1.015
102133,10.105,-0.002,1.324,-3.359,0.824,-0.931
102183,10.018,0.029,1.358,-3.336,0.992,-0.832
102234,10.047,-0.038,1.293,-3.221,0.595,-1.084
102283,10.073,0.036,1.365,-3.412,0.649,-1.107
102333,10.081,0.062,1.377,-3.298,0.702,-0.786
102383,10.093,-0.012,1.365,-3.244,0.733,-1.0
102433,10.09,0.002,1.31,-3.321,0.74,-0.893
102483,10.112,0.041,1.403,-3.084,0.687,-1.015
102534,10.052,0.031,1.36,-3.328,0.542,-0.931
102583,10.071,-0.06,1.305,-3.389,0.618,-0.962
102633,10.143,0.002,1.327,-3.275,0.878,-0.939
102683,10.04,-0.038,1.322,-3.344,0.824,-0.939
102733,10.028,-0.007,1.413,-3.359,0.687,-0.924
102784,10.047,-0.019,1.312,-3.244,0.847,-1.008
102834,10.011,-0.014,1.315,-3.282,0.771,-1.015
102883,10.042,-0.055,1.308,-3.221,0.626,-0.947
102933,10.059,0.019,1.284,-3.42,0.802,-1.053
102983,10.026,0.029,1.248,-3.168,0.809,-0.924
103033,10.045,0.046,1.308,-3.351,0.718,-1.046
103084,10.088,0.007,1.394,-3.282,0.824,-1.015
103134,10.057,0.086,1.241,-3.221,0.649,-0.992
103183,10.057,0.019,1.389,-3.252,0.916,-0.931
103233,10.117,-0.019,1.329,-3.298,0.802,-0.954
103283,10.088,-0.053,1.298,-3.321,0.855,-0.977
103333,10.126,0.05,1.344,-3.351,0.71,-1.053
103384,10.1,-0.014,1.324,-3.244,0.695,-0.878
103433,10.255,-0.146,1.454,-3.42,0.557,-1.198
103483,9.798,0.752,1.145,-3.153,0.733,-0.756
103533,9.978,-0.383,1.322,-3.305,0.916,-0.626
103583,9.987,-0.295,1.396,-3.328,0.893,-1.221
103633,10.215,0.146,1.2,-3.351,0.74,-1.038
103684,10.047,0.184,1.279,-3.237,0.908,-0.679
103733,10.152,-0.041,1.463,-3.153,0.817,-1.008
103783,10.028,-0.038,1.241,-3.214,0.664,-0.939
103833,10.124,0.026,1.305,-3.29,0.763,-1.137
103883,10.028,0.05,1.255,-3.405,0.618,-0.863
103933,9.099,0.719,1.114,-3.183,1.008,0.053
103984,9.652,1.351,0.896,-3.244,0.321,0.374
104033,9.75,0.666,1.401,-3.206,2.336,-0.405
104083,10.148,-0.493,1.763,-3.389,2.115,-1.435
104133,10.339,-0.261,1.485,-3.313,0.191,-1.382
104183,9.894,0.175,1.03,-3.244,0.008,-1.0
104233,9.99,0.0,1.202,-3.221,1.26,-1.214
104284,9.918,0.041,1.435,-3.366,1.321,-1.031
104333,10.071,-0.084,1.42,-3.328,0.405,-0.809
104383,10.097,0.05,1.284,-3.344,0.618,-0.992
104433,10.076,0.005,1.322,-3.282,1.008,-1.038
104483,10.03,0.05,1.521,-3.328,0.855,-1.023
104534,10.085,-0.079,1.32,-3.366,0.443,-0.824
104584,10.085,-0.307,1.375,-3.115,0.679,-0.962
104633,10.169,-0.496,1.473,-3.191,0.137,-1.908
104683,10.325,0.79,1.037,-3.328,0.359,-1.015
104733,9.93,0.596,1.162,-3.336,0.733,-0.412
104783,9.999,-0.319,1.487,-3.26,0.412,-0.359
104834,9.951,-0.383,1.387,-3.298,0.076,-0.985
104884,10.033,-0.077,1.248,-3.313,0.634,-1.107
104934,10.095,0.163,1.286,-3.275,0.908,-0.985
104984,10.078,0.096,1.219,-3.153,0.901,-0.87
105034,9.987,-0.046,1.384,-3.206,0.817,-0.847
105084,9.872,0.079,1.274,-3.16,0.458,-1.076
105135,10.33,0.026,1.248,-3.351,1.229,-1.275
105184,10.186,0.007,1.423,-3.344,1.359,-1.053
105234,10.184,-0.144,1.471,-3.183,0.74,-0.84
105284,9.961,-0.108,1.315,-3.221,0.374,-0.863
105334,10.093,-0.024,1.324,-3.244,0.939,-1.069
105384,9.973,-0.055,1.377,-3.168,0.763,-1.038
105435,9.865,-0.041,1.384,-3.282,0.489,-1.16
105484,9.901,0.225,1.233,-3.214,0.809,-1.023
105534,10.066,0.007,1.277,-3.45,0.473,-0.893
105584,10.064,-0.081,1.504,-3.214,0.863,-1.237
105634,10.196,0.074,1.291,-3.221,0.573,-0.924
105684,10.033,0.113,1.267,-3.153,0.771,-0.809
105735,10.174,-0.053,1.336,-3.389,0.824,-0.916
105784,10.018,-0.031,1.279,-3.435,0.824,-0.962
105834,10.028,-0.232,1.48,-3.458,0.74,-1.046
105884,10.035,0.12,1.538,-3.397,-0.985,-0.756
105934,10.083,-0.134,1.027,-3.198,0.107,-0.763
105985,10.028,0.031,1.296,-3.351,2.061,-1.183
106035,10.023,-0.06,1.454,-3.023,0.053,-0.954
106084,10.016,-0.101,1.063,-3.267,0.977,-0.977
106134,10.097,0.093,1.521,-3.214,0.878,-1.053
106184,10.09,0.029,1.356,-3.252,-0.069,-0.603
106234,10.162,0.0,1.26,-3.305,0.321,-0.695
106285,10.131,0.043,1.135,-3.42,1.481,-1.122
106335,10.023,0.225,1.566,-3.527,0.344,-0.939
106385,10.047,-1.511,1.748,-3.191,-0.237,-0.573
106435,10.014,-0.501,1.358,-3.191,0.214,-1.031
106485,10.097,-0.134,1.298,-3.252,0.221,-0.969
106535,10.157,-0.055,1.279,-3.183,1.412,-1.122
106586,10.157,0.034,1.217,-3.473,0.985,-0.977
106635,10.047,0.014,1.277,-3.282,1.229,-1.137
106685,10.026,-1.741,2.397,-2.985,2.542,-3.031
106735,10.073,0.249,2.441,-2.901,4.046,-3.786
106785,10.081,-0.297,0.939,-3.382,-1.374,0.092
106835,10.059,0.041,1.432,-3.137,1.038,-1.099
106886,10.038,-0.323,1.624,-3.282,-0.405,-0.55
106935,10.124,0.096,1.7,-3.221,-0.992,-0.412
106985,10.076,-0.046,0.972,-3.252,-1.817,-0.481
107035,10.076,0.079,1.188,-3.168,0.855,-1.176
107085,10.054,0.034,1.413,-3.176,0.74,-0.878
107136,10.054,-0.141,0.953,-3.26,0.794,-1.13
107186,10.011,-0.024,1.614,-3.344,1.58,-1.45
107235,10.071,0.031,1.344,-3.443,0.298,-0.809
107285,10.129,-0.062,1.126,-3.26,0.595,-0.802
107335,10.114,-0.072,1.392,-3.26,0.618,-0.87
107385,10.109,-0.002,1.277,-3.321,0.519,-0.992
107436,10.052,-0.115,1.504,-3.069,1.092,-0.947
107486,10.011,-0.093,1.435,-3.267,0.809,-1.145
107535,10.083,-0.12,1.437,-3.42,-0.374,-0.573
107585,10.042,-0.113,1.344,-3.374,0.626,-1.046
107635,10.09,0.199,1.202,-3.031,1.443,-0.901
107685,10.026,0.371,1.437,-3.122,0.977,-0.679
107736,10.155,-0.096,1.224,-3.366,1.122,-1.214
107785,10.073,-0.52,1.267,-2.679,1.969,-2.183
107835,10.076,0.429,1.629,-3.061,1.046,-1.397
107885,10.064,0.196,1.339,-3.252,-0.969,-0.481
107935,10.157,-0.062,1.025,-3.214,0.779,-0.885
107985,10.05,-0.055,1.48,-3.336,1.176,-1.244
108036,10.054,0.055,1.437,-3.374,-0.183,-0.733
108085,10.05,-0.043,1.272,-3.275,-0.076,-0.809
108135,10.006,-0.024,1.341,-3.122,0.397,-0.832
108185,10.071,0.069,1.317,-3.305,0.313,-0.878
108235,10.016,0.007,1.19,-3.45,0.718,-0.939
108285,10.05,-0.053,1.257,-3.359,1.282,-1.168
108336,10.059,0.01,1.368,-3.359,0.855,-1.145
108385,10.117,0.017,1.272,-3.244,0.076,-0.794
108435,10.109,0.072,1.265,-3.198,0.038,-0.626
108485,10.042,-0.06,1.176,-3.359,0.137,-0.695
108535,10.121,0.0,1.229,-3.305,0.924,-1.153
108585,10.114,0.029,1.375,-3.305,0.542,-1.107
108636,10.088,-0.017,1.442,-3.275,-0.603,-0.649
108685,10.09,-0.046,1.03,-3.237,0.107,-0.802
108735,10.085,0.036,1.408,-3.481,1.481,-1.031
108785,10.045,-0.014,1.262,-3.427,0.382,-1.046
108835,10.064,-0.067,1.068,-3.099,1.87,-1.267
108886,9.039,0.891,1.394,-3.069,2.229,-0.962
108936,10.047,-0.036,1.38,-3.183,2.733,-1.336
108985,9.963,0.436,1.815,-1.924,0.931,-1.046
109035,10.239,-0.089,1.219,-3.55,1.366,-0.992
109085,10.085,0.172,1.554,-3.305,0.733,-0.893
109135,10.088,-0.024,1.279,-3.405,0.916,-0.908
109186,10.164,-0.182,2.067,-3.756,0.458,-0.679
109236,10.085,0.019,1.348,-3.321,0.649,-1.038
109286,10.038,-0.012,1.377,-3.504,0.359,-0.924
109336,9.982,0.599,1.849,-4.733,0.031,-0.947
109386,10.109,0.213,1.365,-3.504,0.092,-0.756
109436,10.097,0.072,1.38,-3.145,-1.954,-0.053
109487,10.093,-0.175,0.958,-3.153,-0.031,-0.634
109536,10.061,0.036,1.586,-3.313,2.481,-1.496
109586,10.088,0.067,1.406,-3.305,2.863,-1.443
109636,9.999,0.062,1.521,-3.191,1.26,-0.863
109686,10.073,-0.211,0.79,-2.87,2.191,-1.023
109736,10.035,0.022,1.499,-3.252,0.351,-0.939
109787,10.028,0.129,1.485,-3.305,-0.534,-0.443
109836,10.04,-0.091,1.284,-3.084,0.489,-1.153
109886,10.097,1.004,1.38,-3.099,0.595,-1.0
109936,10.052,-0.046,1.286,-3.153,0.107,-0.718
109986,10.09,-0.034,1.324,-3.252,0.733,-1.038
110036,10.059,-0.038,1.308,-3.351,0.534,-0.809
110087,10.083,-0.072,1.217,-3.397,2.069,-1.443
110136,10.064,0.017,1.427,-3.267,1.046,-0.87
110186,10.114,0.01,1.447,-3.336,-0.046,-0.931
110236,10.05,-0.041,1.317,-3.275,0.107,-0.672
110286,10.136,-0.077,1.226,-3.229,-0.214,-0.786
110337,10.016,-0.026,1.248,-3.481,1.008,-1.351
110387,10.066,-0.072,1.281,-3.282,1.313,-1.053
110436,10.057,0.034,1.339,-3.244,1.611,-1.115
110486,10.03,-0.007,1.454,-3.275,0.641,-0.901
110536,10.076,0.01,1.324,-3.206,0.939,-1.031
