time_ms,ax,ay,az,gx,gy,gz
61,10.112,-0.764,0.321,-3.206,1.038,-2.061
111,10.109,-0.613,0.393,-3.504,2.595,-1.595
161,10.064,-0.675,0.69,-3.282,1.702,-1.214
211,10.064,-0.649,0.639,-3.183,0.008,-0.962
262,10.076,-0.596,0.35,-3.328,-0.229,-0.137
311,10.009,-0.826,0.371,-3.26,0.42,-0.397
361,10.05,-0.776,0.374,-3.115,1.153,-1.305
411,9.975,-0.642,0.443,-3.412,1.534,-1.344
461,10.023,-0.644,0.604,-3.229,1.168,-0.947
512,10.093,-0.8,0.635,-3.374,-1.061,0.099
562,10.071,-0.817,0.235,-3.573,-0.298,-1.115
684,10.112,-0.522,0.371,-3.313,-0.221,0.031
733,9.923,-0.613,0.213,-2.969,1.069,0.305
783,9.879,-1.878,1.399,-4.626,1.573,-2.359
832,10.148,-0.371,-0.031,-3.466,1.0,-1.969
882,10.059,-0.807,0.278,-3.221,1.427,-1.519
932,10.064,-0.484,0.762,-3.252,0.908,-0.55
984,10.052,-0.769,0.388,-3.473,-1.145,0.885
1033,10.085,-0.802,0.366,-3.29,-0.397,0.618
1082,10.033,-0.793,0.627,-3.351,-1.008,-0.481
1132,9.999,-0.762,0.11,-3.267,-0.595,-1.504
1183,10.059,-0.527,-0.086,-3.298,2.496,-2.588
1232,10.088,-0.565,0.869,-3.26,1.0,-0.809
1283,10.097,-0.857,0.074,-3.466,-1.076,-1.702
1334,10.085,-0.553,0.896,-3.008,0.511,-0.366
1383,10.004,-0.776,0.06,-3.557,-2.061,0.565
1432,10.028,-0.922,0.417,-3.42,-0.71,-1.061
1483,9.937,-0.719,0.489,-3.359,0.015,-2.099
1533,9.994,-0.704,0.242,-3.099,-0.954,-2.863
1583,10.026,-0.508,0.364,-3.496,-1.069,-1.031
1633,10.054,-0.486,0.63,-3.45,-2.588,1.069
1684,10.006,-0.901,-0.079,-3.45,-1.244,0.122
1733,10.497,-1.473,-1.296,-1.305,3.542,-3.626
1784,10.651,1.784,5.916,-4.802,-1.595,-7.412
1835,10.136,-0.228,-0.438,-4.458,2.275,3.382
1884,9.913,-2.014,-0.177,-3.229,5.053,-0.382
1933,9.966,-0.929,0.079,-2.496,8.588,-8.489
1984,10.04,-0.927,1.885,-3.191,2.672,-6.573
2034,10.172,0.342,0.474,-3.076,-5.924,-5.809
2084,9.97,-0.781,-0.553,-3.74,-2.099,0.687
2135,10.117,-0.17,0.86,-2.847,2.893,-0.885
2185,9.994,-1.595,0.927,-3.16,-5.557,-1.595
2234,10.03,0.218,-0.23,-2.74,-3.42,-3.443
2284,10.05,-0.225,0.208,-3.344,-0.626,3.542
2334,10.136,-0.766,0.06,-3.504,2.267,3.763
2383,9.966,-1.48,0.46,-3.641,4.473,-1.282
2435,10.145,-1.104,0.062,-3.046,4.351,-6.298
2484,10.042,-0.546,0.216,-3.595,4.916,-5.878
2534,10.179,-0.22,0.249,-3.573,6.74,-4.985
2584,10.131,-0.577,0.232,-3.458,8.412,-3.832
2633,9.908,0.441,1.255,-2.893,8.191,0.412
2683,9.987,-0.582,1.811,-3.519,4.458,8.336
2735,9.896,-1.54,1.976,-2.878,-9.412,2.977
2785,10.232,-1.677,-0.182,-2.565,-11.496,-8.298
2833,10.114,-0.362,-0.637,-3.954,-1.229,-8.473
2884,9.992,0.024,-0.532,-3.802,5.504,-3.099
2933,10.227,0.359,0.139,-2.374,12.191,-2.786
2983,10.27,-0.786,-0.273,-3.412,17.985,3.16
3035,11.57,-0.862,0.742,0.87,21.687,-1.908
3083,10.852,-0.534,1.085,38.29,17.695,-3.664
3134,9.899,-0.769,2.457,124.153,4.053,-12.672
3183,7.326,0.062,1.099,117.153,-10.794,-6.489
3233,8.239,-1.095,0.431,-19.725,-11.794,-1.397
3283,8.806,0.496,0.278,-125.886,-0.427,1.847
3335,7.12,-1.746,-0.996,3.389,-7.397,4.885
3383,11.281,-0.944,0.354,4.038,-3.672,0.191
3433,9.377,-0.029,1.629,-3.542,-4.954,0.519
3483,10.179,-0.616,0.342,-4.481,-5.122,2.153
3533,9.784,0.704,1.138,-3.214,-5.947,4.443
3585,9.982,0.721,0.884,-4.504,-6.412,12.771
3634,10.44,-0.702,0.29,-2.496,-5.389,14.779
3683,10.117,-1.751,0.156,-3.87,-1.069,-3.802
3733,10.009,-0.374,-0.115,-3.092,0.664,-5.725
3784,9.932,0.096,0.491,-3.237,4.168,-0.031
3833,10.117,-0.211,0.781,-3.672,0.252,6.565
3884,10.085,-2.524,-0.086,-3.832,5.13,-2.031
3934,9.896,0.491,2.158,-2.588,-6.0,-9.275
3983,10.191,-0.654,0.402,-5.275,-12.214,-0.771
4033,9.997,-1.183,-1.174,-4.015,-4.008,-9.137
4084,9.93,0.314,0.663,-4.008,2.282,-5.275
4134,10.052,0.335,0.644,-2.992,-0.832,-0.802
4185,10.136,-0.805,0.12,-3.427,0.115,2.916
4235,10.004,-0.465,-0.199,-3.756,1.634,1.214
4284,10.315,-0.908,0.141,-2.969,7.336,-3.45
4334,10.076,-0.077,0.666,-3.42,6.137,0.756
4384,10.138,-0.587,0.886,-2.916,-0.634,-2.962
4433,10.04,-0.354,0.314,-3.305,-1.122,-0.504
4485,10.069,-0.508,0.536,-2.611,-1.55,-2.267
4535,10.073,-0.594,-0.548,-3.053,-0.496,-0.267
4584,10.071,-0.319,0.213,-3.687,4.87,-1.374
4634,10.097,-0.16,0.328,-3.084,4.58,3.214
4684,10.22,-1.116,-0.022,-2.466,6.321,1.763
4734,9.973,-0.541,1.128,-3.282,3.008,0.153
4786,9.963,-0.905,0.91,-3.214,4.42,-0.542
4835,10.097,-0.177,1.073,-3.534,-2.847,5.679
4884,10.023,-1.109,-0.034,-3.191,-1.618,4.595
4934,10.052,-1.315,0.081,-3.183,3.359,-1.206
4985,10.054,-0.826,0.97,-3.214,3.244,-5.55
5035,10.045,-0.141,0.958,-3.351,-1.107,-3.954
5085,10.181,-0.115,0.194,-3.443,-1.046,0.573
5135,10.059,-0.63,0.242,-3.229,2.427,2.664
5185,10.061,-0.984,0.824,-3.191,2.153,0.466
5234,10.097,-0.905,0.793,-3.321,-0.611,-2.603
5285,10.076,-0.469,0.359,-3.397,-0.031,-3.122
5335,9.949,0.568,0.266,-2.847,9.939,2.779
5385,9.978,-1.684,2.127,-3.328,-7.191,4.0
5435,10.006,-1.145,-0.35,-3.588,-5.321,1.649
5485,9.939,-1.437,-0.326,-3.176,1.809,-6.626
5535,10.16,-0.244,0.424,-3.405,6.305,-6.29
5585,10.081,-0.889,1.09,-3.267,4.626,-6.229
5635,9.963,0.692,1.437,-3.435,-2.656,-2.122
5685,10.222,-0.079,-0.081,-3.198,-3.786,6.672
5735,10.009,-1.255,-0.019,-3.366,3.115,5.641
5784,10.009,-1.574,0.963,-3.115,4.336,-1.71
5835,10.004,-0.877,1.13,-3.321,-0.534,-7.107
5884,10.009,-0.029,0.342,-3.237,-2.153,-4.908
5935,10.038,0.007,0.065,-3.573,1.916,1.13
5986,10.09,-0.695,0.759,-3.412,2.969,3.71
6036,10.145,-3.353,-1.444,-1.588,3.985,-2.405
6086,9.949,-1.277,0.63,-3.511,2.756,-6.015
6135,9.923,0.096,1.126,-2.901,5.84,-10.969
6187,9.97,0.249,0.946,-3.145,0.145,-2.359
6237,10.095,-1.229,1.083,-3.328,-4.435,-6.573
6286,10.253,-0.525,-0.328,-0.015,2.511,-10.611
6335,11.008,-0.893,-1.051,22.107,10.618,-17.947
6385,11.434,0.014,-0.242,97.634,26.328,-19.534
6435,10.239,0.328,1.114,118.198,24.656,-17.427
6486,11.822,-1.181,1.734,65.626,14.802,-22.099
6537,12.195,0.659,2.294,0.42,2.176,-26.176
6585,12.025,0.34,1.449,-5.214,-8.244,-16.588
6635,11.982,1.336,1.995,14.496,-18.908,-3.069
6685,13.019,-0.153,0.812,12.176,-25.023,4.13
6736,11.484,0.101,0.525,17.855,-21.656,2.977
6786,11.489,0.536,0.968,36.733,-19.046,7.031
6837,12.322,-0.352,1.274,5.618,-19.214,5.786
6885,12.114,-0.62,0.175,-24.87,-18.931,-2.298
6935,11.578,-0.34,-0.069,9.069,-10.214,-7.542
6986,11.594,-1.317,-0.525,41.244,1.84,-21.458
7035,11.034,-0.853,-0.048,43.786,8.183,-35.45
7087,10.346,1.229,-0.316,47.229,21.985,-37.282
7136,10.617,-0.074,-0.776,31.015,31.29,-31.58
7186,9.774,1.284,0.467,1.214,44.359,-27.985
7235,10.052,0.685,0.39,-0.786,44.84,-22.122
7285,8.517,2.144,1.744,15.275,39.26,-4.382
7335,7.334,0.862,1.748,-32.374,23.916,11.618
7387,6.917,0.223,0.666,-42.527,18.817,17.87
7435,7.044,0.137,-0.053,26.687,20.771,18.679
7486,6.725,1.162,1.473,24.038,20.298,26.763
7535,7.298,1.32,1.803,31.229,10.626,39.58
7586,7.24,0.548,1.763,15.16,0.229,48.366
7636,6.668,0.16,3.171,34.794,-19.687,50.611
7686,7.472,-1.133,0.053,3.817,-21.328,43.244
7735,8.124,-0.311,-0.311,50.397,-8.794,32.359
7785,8.9,-1.827,-0.002,59.817,8.55,19.13
7835,8.806,-0.903,1.435,56.443,8.939,-1.084
7885,9.132,0.304,1.449,41.13,1.29,-4.885
7936,9.07,0.333,1.229,-1.58,-3.527,-1.855
7986,9.329,0.06,1.008,32.664,-6.824,0.069
8036,8.672,-0.45,1.03,0.443,-10.496,-7.527
8085,9.029,1.083,0.735,5.618,-8.198,-3.809
8135,9.606,-0.374,1.492,-38.687,-12.229,-4.229
8186,9.594,1.217,0.75,7.55,-11.374,4.542
8237,9.913,0.019,1.099,-5.565,-14.237,6.237
8287,11.003,0.807,0.031,21.855,-7.611,7.435
8335,10.955,0.819,0.122,47.198,1.58,11.626
8385,11.803,-1.095,1.392,64.321,4.0,9.26
8436,11.654,0.196,1.265,24.695,-1.115,-7.611
8486,10.311,0.098,1.54,31.099,-5.893,-10.672
8537,10.325,1.581,0.812,7.145,-7.137,-3.878
8587,10.203,0.491,1.078,-3.863,-8.847,-0.534
8636,10.49,-0.194,0.999,24.168,-9.328,3.855
8686,10.591,0.599,1.772,6.221,-13.122,-4.641
8735,10.37,-0.565,0.448,-7.878,-15.908,-11.046
8786,10.215,0.671,0.616,25.45,-7.504,-10.382
8836,10.198,0.369,0.922,33.321,-3.344,-14.878
8887,10.162,0.335,0.965,5.29,-2.351,-9.42
8936,10.047,1.03,0.419,32.878,2.901,-10.664
8987,9.736,-0.366,0.637,43.008,7.122,-5.786
9037,9.388,1.274,1.375,19.542,11.565,-3.809
9086,9.896,-1.073,1.243,20.107,6.985,-6.763
9137,9.729,1.19,1.394,25.489,8.473,-5.336
9186,10.097,-0.433,1.198,24.038,2.206,-2.962
9237,9.832,0.558,1.506,-27.626,-2.099,-5.275
9287,9.87,0.168,0.525,-30.924,-4.221,-3.679
9336,9.36,0.242,0.422,6.565,1.908,-0.908
9387,9.57,0.0,0.319,33.45,5.679,0.275
9437,9.305,-0.057,0.984,16.206,9.176,-3.725
9487,10.114,0.359,0.958,-8.725,10.511,-2.756
9537,10.315,0.347,1.171,-26.282,8.687,-2.069
9586,10.485,0.048,1.6,-57.359,7.359,-5.916
9636,11.115,0.642,1.504,-81.16,0.321,-4.076
9687,11.003,0.297,1.109,-74.481,-2.244,-2.908
9737,10.746,-0.237,0.936,-49.878,-3.71,0.198
9787,10.246,-0.122,0.893,-55.924,-2.382,-3.824
9836,10.44,-0.105,1.3,-70.511,-6.038,-5.847
9887,9.439,-0.328,0.668,3.366,-17.611,-17.443
9936,10.203,1.784,-0.589,41.725,-7.832,-6.267
9988,10.076,0.486,1.38,67.649,-8.328,7.992
10037,10.43,0.934,-0.204,40.588,-8.275,17.313
10086,10.888,-0.805,-0.534,-7.992,4.084,16.229
10136,10.368,-0.374,1.14,-15.931,7.466,11.771
10187,10.366,-0.716,0.992,-8.763,-2.153,5.748
10237,10.648,-0.419,0.747,-7.969,-4.634,1.641
10287,10.325,-0.089,0.58,-24.198,-5.763,1.183
10338,10.476,-0.177,0.764,-33.527,-8.443,2.786
10388,10.794,0.089,0.074,-47.427,-6.626,3.504
10438,10.27,-0.019,0.275,-54.313,-2.969,6.191
10488,10.552,-0.527,0.711,-38.427,-6.237,5.687
10537,10.488,-0.568,0.17,-28.16,-5.176,1.84
10588,10.311,-0.309,0.484,-17.321,-2.863,0.718
10637,10.186,-0.113,0.426,-8.115,-3.282,3.656
10687,10.148,-0.17,0.489,-6.191,-2.16,6.053
10738,9.994,-0.287,0.508,-2.809,-1.656,9.489
10787,10.021,-0.376,0.381,0.71,-1.191,12.252
10839,9.944,-0.544,0.326,4.618,-0.176,14.252
10889,9.846,-0.647,0.405,8.412,1.71,15.42
10937,9.779,-0.778,0.376,12.168,4.046,16.641
10988,9.767,-1.006,0.275,15.985,5.84,18.252
11038,9.745,-1.229,0.419,19.344,7.305,19.046
11088,9.664,-1.475,0.462,22.107,9.084,18.847
11139,9.719,-1.677,0.479,24.015,10.702,17.664
11189,9.669,-1.971,0.774,24.71,11.71,15.031
11238,9.709,-2.146,0.879,24.046,11.802,11.786
11287,9.743,-2.273,1.051,22.084,11.008,7.496
11338,9.776,-2.311,1.233,18.527,9.336,3.137
11388,9.867,-2.407,1.384,14.58,7.092,-1.191
11439,9.899,-2.354,1.411,9.687,4.786,-5.595
11489,9.968,-2.278,1.403,4.664,2.641,-9.511
11538,10.1,-2.211,1.329,-0.267,0.344,-13.267
11588,10.093,-2.122,1.243,-4.985,-1.145,-16.947
11638,10.155,-1.947,1.255,-9.038,-2.58,-20.489
11688,10.141,-1.712,1.106,-12.588,-3.718,-23.305
11739,10.095,-1.518,1.011,-15.16,-4.183,-25.229
11788,10.179,-1.298,0.886,-16.794,-4.687,-26.649
11838,10.124,-0.924,0.829,-17.58,-4.71,-26.489
11888,10.105,-0.687,0.754,-17.832,-4.328,-25.473
11938,10.131,-0.4,0.639,-17.458,-3.359,-23.344
11988,10.119,-0.261,0.627,-16.427,-2.443,-20.298
12039,10.129,-0.017,0.498,-15.344,-1.252,-16.481
12088,10.093,0.165,0.604,-14.198,0.092,-12.137
12138,10.193,0.244,0.601,-13.061,1.137,-7.076
12188,10.179,0.29,0.627,-12.641,1.969,-2.023
12238,10.148,0.263,0.766,-12.328,2.473,3.214
12289,10.188,0.283,0.776,-12.824,2.634,7.954
12339,10.145,0.093,0.893,-13.947,2.42,12.382
12388,10.069,0.012,0.98,-15.534,1.466,16.504
12437,10.045,-0.148,1.123,-17.977,0.351,20.244
12488,10.028,-0.35,1.083,-20.267,-1.145,23.344
12538,9.99,-0.587,1.183,-23.099,-2.649,25.802
12589,9.975,-0.934,1.02,-25.725,-4.26,27.534
12639,9.836,-1.231,1.018,-27.87,-5.954,27.542
12688,9.863,-1.497,0.958,-29.481,-7.489,26.908
12738,9.827,-1.813,0.867,-30.084,-8.809,24.71
12788,9.817,-2.17,0.678,-29.26,-9.748,21.557
12837,9.681,-2.338,0.517,-27.153,-9.947,17.42
12889,9.693,-2.455,0.398,-23.504,-9.611,13.015
12939,9.702,-2.599,0.125,-18.168,-8.351,7.878
12988,9.618,-2.668,0.029,-11.702,-6.496,2.901
13038,9.618,-2.702,-0.105,-4.153,-4.42,-2.084
13088,9.57,-2.714,-0.189,4.206,-1.649,-6.985
13137,9.633,-2.596,-0.125,12.878,1.267,-11.87
13189,9.669,-2.4,-0.199,20.992,4.053,-16.061
13239,9.673,-2.342,-0.115,29.053,6.603,-19.748
13289,9.757,-2.067,0.026,35.817,8.466,-23.42
13338,9.757,-1.95,0.194,41.115,9.534,-26.092
13389,9.836,-1.571,0.342,45.275,9.908,-28.176
13440,9.918,-1.303,0.544,47.802,9.366,-29.237
13490,9.99,-0.97,0.589,49.046,8.702,-29.313
13539,10.023,-0.754,0.85,49.527,7.427,-28.473
13589,10.088,-0.517,0.771,49.076,5.672,-27.252
13639,10.169,-0.326,0.936,48.366,3.977,-25.16
13689,10.229,-0.11,0.853,47.076,2.305,-22.275
13740,10.234,0.148,0.865,46.008,1.443,-18.466
13790,10.291,0.237,0.723,45.176,1.076,-13.817
13839,10.299,0.39,0.714,44.183,1.466,-8.481
13889,10.299,0.436,0.716,43.771,2.107,-2.779
13939,10.306,0.453,0.783,43.389,2.641,2.733
13989,10.258,0.328,0.764,42.565,3.221,7.916
14040,10.22,0.242,0.853,41.87,3.611,12.802
14090,10.222,0.065,0.963,40.42,4.008,16.901
14139,10.172,-0.141,0.948,38.863,4.229,20.71
14189,10.181,-0.371,1.025,36.473,4.198,23.55
14239,10.059,-0.63,1.209,33.458,4.153,25.313
14289,10.109,-0.879,1.298,29.824,3.473,26.366
14340,10.069,-1.114,1.408,25.511,2.931,26.405
14390,10.006,-1.365,1.382,20.321,1.511,25.855
14439,9.966,-1.569,1.411,15.031,0.076,24.656
14489,9.944,-1.7,1.459,9.13,-1.924,23.153
14539,9.848,-1.782,1.463,3.466,-3.794,21.153
14589,9.8,-2.005,1.461,-2.282,-5.916,18.511
14640,9.705,-2.177,1.43,-7.344,-8.092,15.74
14690,9.654,-2.266,1.267,-11.672,-10.107,12.397
14740,9.705,-2.409,1.049,-14.725,-11.656,8.473
14790,9.657,-2.417,0.994,-16.389,-12.817,4.221
14840,9.587,-2.472,0.79,-16.962,-13.115,-0.267
14891,9.614,-2.462,0.606,-15.618,-12.992,-4.58
14941,9.599,-2.472,0.426,-12.351,-12.13,-8.718
14990,9.602,-2.354,0.297,-8.382,-10.977,-12.481
15040,9.599,-2.309,0.101,-2.969,-9.397,-16.061
15090,9.688,-2.091,0.041,3.779,-7.466,-19.191
15140,9.731,-2.007,-0.053,11.107,-5.153,-21.58
15191,9.748,-1.799,-0.074,18.527,-3.038,-23.641
15240,9.879,-1.617,-0.067,26.458,-0.733,-25.351
15290,9.994,-1.408,0.005,33.679,1.145,-26.206
15340,9.963,-1.169,0.079,40.481,2.824,-26.588
15390,10.052,-0.898,0.055,46.664,4.473,-25.885
15440,10.081,-0.719,0.187,52.153,5.603,-24.397
15491,10.239,-0.503,0.156,56.603,6.779,-22.656
15541,10.145,-0.386,0.35,60.145,7.565,-20.153
15590,10.265,-0.278,0.503,62.733,7.58,-17.359
15640,10.232,-0.278,0.639,64.405,7.389,-14.656
15690,10.243,-0.156,0.68,65.214,6.947,-11.771
15740,10.246,-0.084,0.786,65.16,6.382,-8.931
15791,10.198,-0.041,0.901,64.649,5.573,-5.542
15841,10.145,-0.062,0.841,63.115,5.031,-2.412
15890,10.124,-0.055,0.944,61.244,4.252,1.046
15940,10.117,-0.062,0.987,58.87,3.954,4.687
15990,10.09,-0.115,1.054,56.359,3.779,8.031
16040,10.054,-0.266,1.015,53.015,3.305,11.351
16091,10.078,-0.335,1.059,49.847,2.611,14.206
16140,10.119,-0.517,1.305,46.069,2.145,16.382
16190,10.081,-0.704,1.221,42.29,0.847,18.176
16240,10.097,-0.821,1.339,38.13,-0.023,19.328
16290,10.124,-1.023,1.253,34.153,-1.344,19.557
16340,10.071,-1.183,1.226,30.252,-2.328,19.427
16391,10.054,-1.315,1.135,26.634,-3.092,18.893
16440,10.071,-1.468,1.142,23.481,-4.053,17.885
16490,10.011,-1.643,1.008,20.641,-4.893,16.588
16540,10.042,-1.751,0.982,18.473,-5.244,15.099
16590,9.98,-1.837,0.915,16.947,-5.389,12.832
16641,9.949,-1.981,0.917,16.069,-5.282,10.412
16691,9.865,-2.005,0.79,15.389,-4.969,7.351
16740,9.774,-2.074,0.714,15.267,-4.344,4.206
16790,9.714,-2.124,0.702,15.427,-3.809,1.389
16840,9.719,-2.108,0.666,15.824,-3.298,-1.519
16890,9.669,-2.072,0.733,16.313,-2.664,-4.168
16941,9.58,-2.029,0.774,16.328,-2.626,-6.656
16991,9.594,-2.005,0.821,16.534,-2.763,-9.198
17040,9.594,-1.911,0.8,16.626,-3.015,-11.534
17090,9.638,-1.782,0.848,16.496,-3.008,-13.237
17140,9.683,-1.679,0.776,16.115,-3.443,-14.702
17190,9.721,-1.475,0.848,15.756,-3.771,-15.557
17241,9.86,-1.317,0.774,15.244,-3.885,-15.924
17290,9.903,-1.241,0.735,14.779,-4.16,-15.779
17340,10.085,-1.095,0.896,14.298,-4.374,-15.221
17389,10.078,-1.008,0.771,13.718,-4.328,-14.565
17440,10.174,-0.893,0.771,13.351,-4.71,-13.588
17490,10.186,-0.836,0.778,12.924,-4.817,-12.382
17541,10.296,-0.754,0.716,12.458,-5.069,-11.107
17591,10.339,-0.709,0.675,12.473,-5.237,-9.573
17641,10.332,-0.572,0.709,12.214,-4.924,-7.557
17691,10.306,-0.546,0.651,12.008,-4.679,-5.366
17741,10.308,-0.525,0.709,12.061,-4.702,-3.244
17792,10.251,-0.455,0.711,12.168,-4.779,-0.626
17842,10.236,-0.527,0.75,12.664,-5.015,1.924
17890,10.232,-0.529,0.733,13.313,-5.206,4.397
17941,10.129,-0.611,0.651,14.473,-5.481,6.519
17991,10.114,-0.742,0.541,15.947,-5.397,8.42
18041,10.107,-0.879,0.616,17.954,-4.733,10.053
18092,10.04,-1.015,0.57,20.504,-3.702,11.031
18142,10.011,-1.104,0.386,23.466,-2.427,11.313
18191,9.999,-1.31,0.414,26.504,-1.237,10.847
18241,10.018,-1.494,0.429,29.969,0.092,10.069
18291,9.978,-1.574,0.457,33.237,1.038,8.863
18341,9.99,-1.602,0.486,36.344,1.924,7.435
18392,10.016,-1.595,0.457,39.366,2.87,5.588
18442,9.949,-1.758,0.465,41.718,4.076,3.718
18491,9.939,-1.758,0.496,43.542,5.183,1.275
18541,9.918,-1.768,0.577,44.817,6.122,-1.473
18591,9.963,-1.779,0.79,45.221,6.763,-4.16
18641,9.97,-1.736,0.812,44.595,6.595,-6.786
18692,9.896,-1.624,1.02,43.29,6.107,-9.023
18742,9.951,-1.574,1.037,40.954,5.145,-11.092
18791,9.81,-1.43,1.126,37.664,4.061,-12.313
18841,9.796,-1.293,1.26,33.603,2.588,-13.107
18891,9.808,-1.102,1.219,29.0,1.252,-13.321
18941,9.764,-1.008,1.3,24.176,-0.336,-12.992
18992,9.767,-0.841,1.26,18.824,-1.748,-12.092
19042,9.827,-0.738,1.322,13.687,-3.382,-10.557
19092,9.82,-0.651,1.36,8.695,-5.137,-8.695
19142,9.846,-0.515,1.303,4.237,-6.863,-6.672
19192,9.86,-0.445,1.195,0.008,-8.229,-4.237
19243,9.973,-0.45,1.095,-3.458,-9.267,-1.641
19293,10.045,-0.407,0.982,-6.374,-9.855,1.084
19342,10.141,-0.445,0.893,-8.214,-10.198,3.756
19392,10.138,-0.548,0.805,-9.374,-10.298,5.878
19442,10.169,-0.625,0.697,-9.916,-10.107,7.855
19492,10.186,-0.73,0.68,-9.809,-10.237,9.374
19543,10.327,-0.855,0.572,-8.466,-9.802,10.519
19593,10.255,-0.999,0.635,-7.053,-9.427,11.076
19642,10.208,-1.123,0.453,-4.748,-8.733,11.282
19692,10.117,-1.202,0.347,-1.931,-7.725,11.115
19742,10.162,-1.334,0.448,1.611,-6.443,10.786
19792,10.107,-1.336,0.453,5.313,-5.16,10.115
19843,10.088,-1.581,0.323,9.489,-3.809,9.046
19893,9.999,-1.677,0.278,13.519,-2.756,7.763
19942,10.045,-1.619,0.285,17.405,-1.55,6.336
19992,10.021,-1.791,0.357,21.328,-0.237,4.557
20042,10.009,-1.851,0.424,25.115,0.802,2.679
20092,9.942,-1.875,0.364,28.29,1.779,0.405
20143,10.03,-1.904,0.481,31.038,2.847,-2.115
20193,10.028,-1.926,0.608,33.023,3.427,-4.794
20242,9.958,-1.95,0.721,34.702,3.427,-7.443
20292,9.968,-1.873,0.675,35.603,2.84,-9.954
20342,10.004,-1.744,0.723,36.405,2.74,-12.137
20392,10.014,-1.645,0.747,36.099,2.145,-14.252
20443,10.045,-1.581,0.774,35.901,1.725,-15.565
20492,10.047,-1.432,0.783,35.237,1.29,-16.824
20542,10.035,-1.267,0.778,34.481,1.198,-17.557
20592,9.951,-1.133,0.867,33.565,0.366,-18.053
20642,10.028,-0.96,0.831,32.382,-0.183,-18.168
20692,9.947,-0.886,0.872,31.282,-0.985,-17.473
20743,9.987,-0.675,0.855,30.198,-1.71,-16.588
20792,9.808,-0.548,0.821,29.481,-2.305,-14.763
20842,9.877,-0.429,0.807,28.748,-2.588,-12.45
20892,9.93,-0.259,0.613,28.0,-2.382,-9.336
20942,9.82,-0.18,0.781,27.893,-2.168,-5.954
20993,9.87,-0.165,0.738,27.794,-1.817,-1.985
21043,9.889,-0.153,0.754,27.534,-1.206,1.832
21092,9.846,-0.194,0.766,27.649,-1.176,5.412
21142,9.954,-0.304,0.723,27.443,-1.176,8.656
21192,9.944,-0.371,0.745,27.336,-1.122,11.115
21242,10.047,-0.577,0.769,27.221,-0.969,13.595
21293,10.059,-0.623,0.75,27.038,-0.878,15.298
21343,10.143,-0.752,0.812,26.511,-0.214,16.58
21392,10.081,-0.948,0.833,25.824,0.076,17.45
21442,10.066,-1.049,0.857,25.046,0.534,18.115
21492,10.035,-1.233,0.963,23.725,0.824,18.099
21542,10.076,-1.415,0.999,22.092,0.519,17.275
21593,10.066,-1.607,1.071,20.153,0.145,16.099
21643,10.059,-1.715,1.128,17.817,-0.679,14.237
21692,10.093,-1.789,1.104,15.267,-1.55,12.252
21742,10.023,-1.873,1.116,12.679,-2.55,9.824
21792,10.064,-1.993,1.02,9.939,-3.916,7.252
21842,9.961,-1.981,1.104,7.489,-5.13,4.794
21893,9.954,-2.005,1.015,5.389,-6.206,2.26
21943,9.958,-2.026,0.927,3.664,-6.641,-0.71
21993,9.954,-2.0,0.831,2.603,-7.031,-3.336
22043,9.975,-2.005,0.795,2.298,-6.916,-5.87
22093,9.954,-1.935,0.651,2.618,-6.557,-8.023
22144,9.925,-1.918,0.627,3.664,-6.328,-10.328
22194,9.954,-1.82,0.577,5.061,-6.244,-12.427
22243,9.949,-1.772,0.489,7.092,-5.45,-13.947
22293,9.997,-1.681,0.563,9.427,-4.977,-15.405
22343,10.078,-1.595,0.445,12.252,-3.87,-16.611
22393,10.042,-1.468,0.316,15.267,-2.893,-17.893
22444,10.169,-1.396,0.307,18.191,-1.87,-18.649
22494,10.085,-1.243,0.489,21.191,-0.725,-19.13
22543,10.215,-1.126,0.426,23.916,-0.206,-19.282
22593,10.124,-0.936,0.515,26.679,0.603,-18.969
22643,10.097,-0.836,0.522,28.893,0.855,-18.229
22693,10.105,-0.635,0.606,31.137,1.183,-16.969
22744,10.04,-0.501,0.541,33.084,1.183,-15.427
22794,9.927,-0.352,0.568,34.626,1.45,-13.282
22843,9.942,-0.285,0.656,35.908,1.809,-10.733
22893,9.865,-0.177,0.596,37.282,2.069,-7.695
22943,9.951,-0.129,0.577,37.992,2.901,-4.076
22993,9.846,-0.11,0.675,38.313,3.527,-0.221
23044,9.884,-0.117,0.742,38.588,3.924,3.382
23094,9.815,-0.113,0.905,38.191,4.099,7.015
23143,9.923,-0.189,0.936,37.771,3.802,9.969
23193,9.949,-0.271,0.989,36.603,3.542,13.023
23243,9.949,-0.469,1.054,35.252,2.962,15.916
23293,10.047,-0.623,0.98,33.595,2.634,18.107
23344,10.095,-0.795,0.953,31.985,2.565,19.435
23394,10.198,-1.018,0.956,30.084,2.45,19.786
23444,10.126,-1.217,0.96,27.992,2.588,19.565
23494,10.114,-1.401,1.068,25.687,2.374,18.458
23544,10.097,-1.506,0.999,23.298,2.26,16.748
23595,10.138,-1.648,1.001,20.489,1.634,15.183
23645,10.009,-1.799,1.135,17.473,0.901,12.908
23694,10.064,-1.835,1.109,14.29,-0.397,10.74
23744,9.97,-1.933,1.135,11.221,-1.855,8.29
23794,9.954,-1.995,1.147,8.13,-3.168,5.397
23844,9.978,-2.038,1.106,5.351,-4.221,2.679
23895,9.913,-2.11,1.006,3.183,-4.962,-0.237
23945,9.841,-2.057,0.922,1.45,-5.122,-3.237
23994,9.851,-1.95,0.759,0.191,-5.107,-5.802
24044,9.875,-1.918,0.896,-0.779,-4.969,-8.45
24094,9.87,-1.928,0.817,-1.389,-4.977,-10.481
24144,9.889,-1.801,0.733,-1.237,-4.931,-12.389
24195,9.961,-1.665,0.762,-1.466,-4.893,-13.893
24245,9.978,-1.578,0.798,-1.122,-4.664,-15.053
24294,9.927,-1.492,0.738,-0.74,-4.718,-15.855
24344,10.03,-1.322,0.75,-0.115,-4.405,-16.611
24394,10.035,-1.248,0.599,0.443,-4.076,-17.298
24444,10.172,-1.111,0.704,1.359,-3.855,-17.496
24495,10.198,-0.989,0.618,2.046,-3.847,-17.229
24545,10.164,-0.865,0.599,2.931,-3.473,-16.527
24594,10.224,-0.726,0.692,3.931,-3.244,-15.336
24644,10.172,-0.589,0.702,5.115,-3.015,-13.74
24694,10.176,-0.493,0.716,6.221,-3.031,-11.634
24744,10.188,-0.395,0.671,7.588,-2.817,-9.145
24795,10.114,-0.378,0.582,9.084,-2.74,-6.389
24844,10.028,-0.314,0.577,10.954,-2.313,-3.519
24894,10.026,-0.28,0.479,12.962,-1.924,-0.344
24944,9.954,-0.287,0.489,15.344,-1.0,2.794
24994,9.875,-0.295,0.477,17.863,0.092,5.992
25044,9.93,-0.419,0.457,20.496,1.153,8.718
25095,9.887,-0.546,0.503,23.053,2.611,11.565
25144,9.889,-0.606,0.515,25.466,3.55,13.847
25194,9.894,-0.716,0.577,27.817,4.611,15.679
25244,9.949,-0.982,0.63,29.611,5.611,16.939
25294,9.97,-1.212,0.642,30.84,6.511,16.893
25345,9.968,-1.427,0.764,31.702,6.885,16.122
25395,9.918,-1.526,0.838,31.557,7.023,14.359
25444,9.956,-1.653,0.829,30.641,7.427,12.176
25494,9.999,-1.782,0.98,29.038,6.893,9.481
25544,10.016,-1.854,1.099,26.473,6.275,6.656
25594,9.982,-1.875,1.085,23.351,5.321,4.099
25645,10.069,-1.885,1.224,19.611,4.191,1.695
25695,9.97,-1.859,1.284,15.168,2.748,-0.916
25744,10.047,-1.914,1.358,11.145,1.115,-3.351
25794,10.052,-1.768,1.212,6.672,-0.824,-5.519
25844,10.002,-1.768,1.286,2.405,-2.237,-7.863
25894,9.954,-1.655,1.164,-1.504,-3.26,-10.214
25945,9.954,-1.518,1.109,-5.076,-4.168,-11.542
25995,9.908,-1.408,1.099,-8.015,-4.542,-12.618
26044,9.937,-1.312,1.027,-10.771,-5.053,-13.29
26094,9.994,-1.171,0.903,-13.137,-5.321,-13.046
26144,9.958,-1.049,0.97,-14.962,-5.366,-12.321
26194,10.009,-0.992,0.874,-15.977,-5.588,-11.664
26245,10.121,-0.865,0.833,-17.015,-5.679,-10.695
26295,10.076,-0.848,0.838,-17.908,-5.824,-9.382
26345,10.188,-0.714,0.73,-18.069,-5.763,-8.221
26395,10.193,-0.695,0.795,-17.885,-5.756,-6.977
26445,10.258,-0.656,0.702,-17.458,-5.672,-5.221
26496,10.241,-0.601,0.759,-16.817,-5.519,-3.611
26546,10.263,-0.601,0.608,-15.649,-5.359,-1.802
26595,10.227,-0.613,0.625,-14.382,-5.031,-0.015
26689,10.117,-0.738,0.548,-10.458,-4.168,3.046
26739,10.162,-0.764,0.527,-7.901,-3.542,4.229
26789,10.114,-0.831,0.479,-4.718,-3.031,5.496
26840,9.97,-0.917,0.374,-1.435,-2.031,6.328
26890,9.879,-0.958,0.412,2.16,-1.084,6.992
26939,9.846,-1.092,0.347,6.344,0.229,7.756
26989,9.853,-1.102,0.261,10.374,1.84,8.427
27039,9.882,-1.265,0.268,14.481,3.618,8.603
27089,9.762,-1.289,0.453,17.855,5.153,8.328
27140,9.839,-1.466,0.417,20.969,6.282,7.626
27190,9.882,-1.518,0.572,23.435,7.351,6.641
27239,9.856,-1.526,0.635,24.931,7.817,5.282
27289,9.872,-1.705,0.74,25.542,8.046,3.527
27339,9.887,-1.66,0.896,25.115,7.618,1.802
27389,9.956,-1.693,0.913,24.229,7.313,-0.168
27440,9.951,-1.705,0.956,22.115,6.473,-2.221
27490,9.975,-1.621,1.083,19.71,5.588,-4.069
27540,10.064,-1.605,1.147,16.473,4.595,-5.878
27590,9.999,-1.533,1.233,12.87,2.977,-7.389
27640,10.004,-1.468,1.233,9.153,1.603,-8.878
27691,9.98,-1.413,1.253,5.634,-0.115,-9.557
27741,9.982,-1.219,1.26,2.214,-1.412,-10.099
27790,10.057,-1.15,1.006,-1.038,-2.763,-10.29
27840,9.978,-1.078,1.047,-3.687,-3.565,-9.931
27890,10.033,-0.936,0.924,-5.756,-3.977,-9.29
27940,10.073,-0.814,0.857,-7.42,-3.931,-8.534
27991,10.014,-0.747,0.862,-8.374,-3.466,-7.191
28041,10.069,-0.704,0.75,-9.115,-3.176,-5.313
28090,10.102,-0.675,0.853,-9.511,-2.863,-3.466
28140,10.126,-0.627,0.754,-9.695,-2.779,-1.489
28190,10.124,-0.675,0.788,-9.756,-2.756,0.45
28240,10.208,-0.716,0.819,-10.008,-2.573,2.061
28291,10.124,-0.79,0.838,-10.122,-2.435,3.756
28341,10.179,-0.939,0.821,-9.962,-2.649,5.008
28390,10.193,-0.908,0.79,-9.924,-2.733,5.87
28440,10.193,-1.023,0.781,-9.863,-2.885,6.351
28490,10.227,-1.104,0.764,-9.542,-3.122,6.26
28540,10.198,-1.205,0.723,-9.321,-3.13,5.947
28591,10.141,-1.257,0.754,-8.656,-3.191,5.366
28641,10.105,-1.36,0.683,-8.008,-3.313,4.748
28690,10.023,-1.442,0.704,-6.679,-3.351,3.725
28740,9.982,-1.449,0.63,-5.328,-3.313,2.901
28790,9.963,-1.444,0.575,-3.344,-3.038,2.008
28840,9.882,-1.504,0.534,-1.382,-2.71,1.038
28891,9.8,-1.494,0.479,1.26,-1.771,0.153
28940,9.791,-1.514,0.388,3.962,-0.893,-0.664
28990,9.82,-1.571,0.438,6.939,0.198,-1.473
29040,9.781,-1.456,0.436,9.71,1.626,-2.275
29090,9.808,-1.411,0.493,12.527,2.489,-3.13
29140,9.808,-1.451,0.493,14.939,3.008,-3.672
29191,9.839,-1.363,0.613,17.008,3.611,-4.237
29240,9.906,-1.387,0.63,18.947,3.939,-4.756
29290,9.942,-1.324,0.709,20.053,3.84,-5.076
29340,9.961,-1.312,0.687,20.74,4.076,-5.481
29390,10.011,-1.255,0.752,21.214,4.092,-5.702
29441,10.071,-1.226,0.802,21.321,4.198,-6.084
29491,10.073,-1.193,0.802,20.863,3.985,-6.458
29540,10.121,-1.138,0.886,20.038,3.794,-6.687
29590,10.15,-1.035,0.891,19.191,3.29,-6.481
29640,10.184,-0.982,0.903,17.954,2.672,-6.122
29690,10.241,-0.968,0.956,16.397,1.924,-5.595
29741,10.167,-0.881,0.913,14.885,1.267,-4.611
29791,10.105,-0.812,0.936,13.107,0.725,-3.527
29840,10.121,-0.759,0.891,11.725,0.214,-2.092
29890,10.133,-0.742,0.908,10.321,-0.053,-0.71
29940,10.064,-0.798,0.807,8.779,-0.008,0.656
29990,10.066,-0.836,0.79,7.405,-0.008,1.977
30041,10.006,-0.845,0.922,6.046,-0.183,3.435
30091,10.002,-0.944,0.901,4.496,0.038,4.527
30140,10.04,-0.984,0.92,2.748,0.046,5.427
30190,10.117,-1.035,0.958,0.832,-0.275,5.893
30240,10.016,-1.159,1.015,-1.397,-1.198,6.26
30290,10.088,-1.202,1.001,-3.374,-1.954,6.206
30341,10.141,-1.269,1.059,-5.908,-3.122,6.183
30391,10.119,-1.351,0.972,-8.061,-4.229,5.534
30441,10.059,-1.432,0.987,-10.0,-5.42,4.473
30491,10.16,-1.48,0.915,-11.351,-6.366,3.214
30541,10.061,-1.49,0.915,-12.321,-6.947,1.756
30592,10.15,-1.547,0.85,-12.58,-7.031,0.573
30642,10.114,-1.475,0.663,-12.206,-7.153,-0.977
30691,10.023,-1.528,0.637,-10.954,-7.107,-2.099
30741,9.958,-1.492,0.517,-8.992,-6.527,-2.885
30791,9.887,-1.456,0.455,-6.275,-6.282,-3.748
30841,9.875,-1.375,0.422,-2.992,-5.405,-4.542
30892,9.867,-1.425,0.292,1.069,-4.023,-5.137
30942,9.815,-1.387,0.314,5.573,-2.45,-5.756
30991,9.779,-1.279,0.228,10.176,-0.718,-6.344
31041,9.853,-1.269,0.194,14.924,1.214,-6.611
31091,9.863,-1.133,0.249,19.489,2.832,-6.511
31141,9.772,-1.097,0.342,23.481,4.046,-6.237
31192,9.882,-1.104,0.402,27.26,4.863,-5.855
31242,9.923,-1.039,0.445,30.038,5.374,-5.42
31291,9.875,-1.004,0.57,32.038,5.863,-4.718
31341,9.994,-1.001,0.52,33.847,6.008,-4.038
31391,10.004,-0.929,0.644,34.863,6.275,-3.366
31441,10.081,-0.984,0.759,34.802,6.443,-2.847
31492,10.131,-0.999,0.91,34.275,6.763,-2.351
31542,10.119,-1.075,0.821,32.847,6.542,-1.939
31591,10.215,-0.999,1.068,31.122,5.985,-1.878
31641,10.181,-1.006,1.142,28.221,4.595,-1.328
31691,10.258,-0.972,1.169,25.374,3.29,-1.099
31741,10.198,-0.872,1.19,21.817,1.718,-0.427
31792,10.145,-0.975,1.202,18.336,0.252,0.282
31842,10.129,-0.922,1.128,14.641,-1.008,1.023
31892,10.15,-0.994,1.181,10.977,-2.038,1.901
31942,10.129,-1.092,1.118,7.664,-2.71,2.313
31992,10.081,-1.121,1.049,4.718,-3.13,2.481
32043,10.088,-1.15,0.982,1.916,-3.519,2.504
32093,10.097,-1.147,1.059,-0.359,-4.183,2.214
32142,9.935,-1.221,1.013,-2.634,-4.618,2.053
32192,9.973,-1.233,0.908,-4.374,-5.183,1.702
32242,9.98,-1.25,1.004,-5.664,-5.641,1.45
32292,10.018,-1.176,0.932,-6.649,-6.435,1.504
32343,10.04,-1.188,0.805,-7.16,-6.748,1.588
32393,10.018,-1.202,0.85,-7.122,-6.908,1.496
32442,10.028,-1.198,0.719,-6.427,-6.855,1.489
32492,10.052,-1.205,0.565,-5.191,-6.58,1.511
32542,10.064,-1.229,0.558,-3.504,-5.901,1.282
32592,10.047,-1.308,0.51,-1.26,-5.145,1.344
32643,10.066,-1.339,0.424,1.565,-4.443,1.214
32693,9.997,-1.32,0.448,4.443,-3.55,0.763
32742,9.913,-1.334,0.388,7.565,-2.809,0.168
32792,9.86,-1.372,0.465,10.954,-1.855,-0.397
32842,9.812,-1.401,0.462,14.511,-0.847,-1.344
32892,9.899,-1.413,0.388,17.87,0.168,-2.16
32943,9.901,-1.425,0.374,21.328,1.611,-2.863
32993,9.853,-1.336,0.357,24.458,2.573,-3.557
33042,9.973,-1.3,0.467,26.916,3.832,-3.916
33092,9.925,-1.219,0.546,28.695,4.87,-4.198
33142,9.92,-1.238,0.704,29.786,5.267,-4.405
33192,9.918,-1.214,0.821,30.145,5.344,-4.519
33243,9.973,-1.123,0.869,29.412,4.878,-4.191
33292,9.961,-1.195,0.891,28.267,3.947,-4.16
33342,9.994,-1.164,1.018,26.45,3.206,-4.069
33392,10.059,-1.171,1.025,24.13,2.076,-4.023
33442,10.064,-1.159,1.001,21.626,1.023,-4.107
33492,10.15,-1.145,1.073,18.733,-0.031,-4.092
33543,10.167,-1.133,1.09,16.115,-0.954,-4.015
33592,10.198,-1.106,1.083,13.298,-1.962,-3.74
33642,10.186,-0.975,1.063,10.74,-2.885,-3.344
33692,10.179,-1.023,1.09,8.687,-3.748,-2.878
33742,10.162,-1.013,0.917,7.092,-4.603,-2.252
33793,10.069,-1.047,0.889,5.901,-5.374,-1.672
33843,10.126,-1.073,0.872,5.26,-5.687,-1.305
33892,10.023,-1.099,0.766,5.168,-5.618,-1.214
33942,10.028,-1.159,0.618,5.931,-5.031,-1.015
33992,10.033,-1.15,0.618,6.916,-4.244,-1.176
34042,10.045,-1.114,0.536,8.466,-3.389,-1.099
34093,9.98,-1.135,0.582,10.008,-2.389,-1.038
34143,9.994,-1.104,0.577,11.977,-1.42,-0.809
34192,10.109,-1.059,0.584,13.664,-0.809,-0.588
34242,10.121,-1.056,0.608,15.313,-0.237,0.023
34292,10.052,-0.994,0.656,16.71,0.26,0.74
34342,10.081,-0.917,0.627,17.832,0.595,1.389
34393,10.1,-0.96,0.798,18.595,0.802,2.298
34443,10.076,-1.03,0.692,19.061,0.908,2.977
34492,10.064,-1.032,0.769,19.16,1.023,3.656
34542,10.059,-1.135,0.843,19.038,1.099,4.176
34592,10.045,-1.097,0.865,18.412,0.817,4.649
34642,10.004,-1.145,0.877,17.672,0.733,4.87
34693,9.958,-1.289,0.946,16.656,0.176,4.893
34743,9.925,-1.265,0.994,15.58,-0.351,4.855
34793,9.863,-1.358,0.908,14.427,-0.939,4.29
34843,9.961,-1.406,0.869,13.298,-1.29,3.802
34893,9.899,-1.454,0.824,12.183,-1.511,2.634
34944,9.915,-1.542,0.807,11.084,-1.664,1.679
34994,9.851,-1.564,0.934,10.038,-1.656,0.313
35043,9.879,-1.533,0.889,8.939,-1.908,-0.969
35093,9.966,-1.485,0.903,7.893,-2.061,-1.885
35143,9.987,-1.475,0.896,7.298,-2.55,-2.641
35193,9.958,-1.447,0.865,6.351,-2.885,-3.374
35244,9.939,-1.38,0.853,5.87,-3.313,-3.87
35294,10.023,-1.437,0.795,5.733,-3.595,-4.496
35343,10.047,-1.418,0.774,5.893,-3.794,-5.038
35393,9.968,-1.437,0.637,6.183,-3.863,-5.679
35443,10.038,-1.353,0.683,6.885,-3.45,-6.466
35493,10.109,-1.308,0.632,7.901,-2.893,-7.023
35544,10.052,-1.277,0.625,9.244,-2.435,-7.527
35594,10.05,-1.25,0.594,11.069,-1.718,-7.779
35643,10.138,-1.104,0.582,12.221,-1.42,-7.725
35693,10.15,-1.095,0.56,13.824,-0.695,-7.45
35743,10.119,-1.078,0.575,15.298,-0.511,-7.145
35793,10.167,-1.087,0.513,16.908,-0.076,-6.817
35844,10.129,-1.004,0.632,18.191,0.55,-6.221
35894,10.081,-0.98,0.687,19.145,1.099,-6.061
35943,10.081,-1.008,0.659,19.939,1.534,-5.733
35993,10.076,-0.963,0.699,20.427,1.725,-5.359
36043,9.978,-0.901,0.738,20.534,1.702,-4.664
36093,9.958,-0.821,0.821,20.366,1.435,-3.855
36144,10.033,-0.824,0.867,19.969,0.763,-2.695
36194,10.011,-0.687,0.812,19.298,0.344,-1.328
36244,9.98,-0.666,0.833,18.626,0.107,0.527
36294,10.081,-0.673,0.826,17.84,-0.237,2.382
36344,10.045,-0.735,0.771,17.305,-0.153,3.939
36395,10.052,-0.73,0.776,16.504,-0.076,5.656
36445,10.167,-0.814,0.75,16.183,0.153,7.046
36494,10.105,-0.867,0.812,15.649,0.374,8.336
36544,10.1,-0.941,0.92,14.847,0.504,9.13
36594,10.124,-1.054,0.817,13.954,0.328,9.931
36644,10.059,-1.147,0.901,13.092,-0.107,10.427
36695,10.059,-1.224,0.841,12.191,-0.221,10.695
36745,10.004,-1.375,0.922,11.298,-0.71,10.084
36794,9.963,-1.523,0.886,10.359,-0.969,9.229
36844,9.913,-1.593,0.817,9.313,-1.191,7.786
36894,9.865,-1.715,0.848,8.229,-1.473,6.046
36944,9.913,-1.698,0.896,7.489,-1.389,4.031
36995,9.815,-1.717,0.927,6.527,-1.779,2.069
37045,9.856,-1.789,0.836,5.786,-2.176,-0.244
37094,9.834,-1.799,0.845,5.328,-2.42,-2.145
37144,9.896,-1.72,0.872,4.771,-2.641,-4.031
37194,9.887,-1.641,0.805,4.588,-3.038,-5.45
37244,9.92,-1.648,0.774,4.489,-3.252,-6.634
37295,9.939,-1.562,0.778,4.863,-3.458,-7.977
37345,9.925,-1.564,0.661,5.489,-3.206,-8.817
37394,9.975,-1.502,0.558,6.076,-2.847,-9.992
37444,10.03,-1.439,0.623,6.901,-2.176,-11.076
37494,10.066,-1.348,0.635,7.725,-1.366,-11.847
37544,10.114,-1.236,0.711,8.565,-0.802,-12.328
37595,10.088,-1.135,0.68,9.42,-0.534,-12.496
37644,10.16,-1.049,0.73,9.588,-0.366,-12.153
37694,10.148,-0.905,0.81,9.908,-0.328,-11.305
37744,10.198,-0.814,0.807,10.221,-0.542,-10.206
37794,10.198,-0.821,0.762,9.992,-1.13,-8.863
37844,10.105,-0.817,0.845,9.901,-1.389,-7.519
37895,10.054,-0.73,0.776,9.756,-1.504,-6.244
37944,10.114,-0.699,0.821,9.603,-1.802,-4.74
37994,10.052,-0.702,0.776,9.695,-1.748,-3.344
38044,10.085,-0.678,0.762,10.092,-1.947,-1.802
38094,10.059,-0.651,0.675,10.534,-1.733,-0.321
38145,9.992,-0.584,0.723,11.328,-1.832,1.664
38195,10.018,-0.656,0.642,12.382,-1.733,3.588
38244,10.138,-0.606,0.592,13.466,-1.023,5.656
38294,10.023,-0.695,0.57,15.031,-0.496,7.725
38344,10.014,-0.79,0.56,16.779,0.267,9.16
38394,10.093,-0.929,0.496,18.328,1.405,10.366
38445,10.073,-1.063,0.558,20.13,2.29,11.031
38495,10.088,-1.164,0.637,21.664,3.389,11.084
38544,10.038,-1.344,0.649,22.649,4.015,10.74
38594,10.047,-1.408,0.704,23.206,4.802,9.992
38644,9.994,-1.447,0.733,23.168,4.847,9.168
38694,10.035,-1.552,0.845,22.542,5.015,8.023
38745,9.994,-1.59,0.96,21.237,4.748,6.702
38795,9.958,-1.7,1.027,19.221,4.252,5.008
38844,9.867,-1.72,1.035,16.672,3.427,3.221
38894,9.925,-1.775,1.106,13.496,2.382,0.969
38944,9.827,-1.763,1.229,10.099,1.115,-1.298
38994,9.786,-1.758,1.15,6.557,-0.305,-3.359
39045,9.865,-1.667,1.255,2.71,-1.71,-5.305
39095,9.86,-1.595,1.193,-0.794,-2.969,-6.55
39145,9.827,-1.586,1.121,-4.069,-3.962,-7.824
39195,9.942,-1.456,1.073,-6.664,-4.718,-8.405
39245,9.939,-1.461,0.896,-9.084,-5.427,-9.275
39296,9.884,-1.365,0.913,-10.389,-5.771,-9.611
39346,9.932,-1.272,0.901,-11.366,-5.679,-10.122
39395,10.047,-1.195,0.793,-11.809,-5.748,-10.351
39445,10.071,-1.116,0.728,-11.382,-5.42,-10.603
39495,10.066,-0.994,0.594,-10.87,-4.786,-10.519
39545,10.133,-0.944,0.627,-9.908,-4.405,-9.771
39596,10.167,-0.833,0.611,-8.489,-3.779,-8.802
39646,10.164,-0.738,0.589,-6.832,-2.977,-7.473
39695,10.181,-0.678,0.527,-5.359,-2.405,-5.763
39745,10.184,-0.673,0.582,-3.794,-1.702,-3.901
39795,10.164,-0.692,0.556,-1.611,-1.008,-2.214
39845,10.047,-0.738,0.656,0.061,-0.382,-0.55
39896,10.076,-0.802,0.596,1.802,-0.061,0.611
39946,9.997,-0.85,0.57,3.504,0.603,1.557
39995,9.99,-0.92,0.601,5.038,0.84,2.267
40045,10.014,-0.862,0.627,6.458,1.015,3.023
40095,10.05,-0.891,0.697,8.053,1.0,3.695
40145,9.982,-0.96,0.661,9.45,1.237,4.405
40196,10.038,-0.98,0.697,10.725,1.336,5.466
40246,10.054,-1.025,0.594,12.092,1.855,6.214
40295,10.045,-1.056,0.635,13.534,2.58,6.87
40345,10.045,-1.231,0.604,14.794,3.076,6.931
40395,10.033,-1.272,0.644,16.061,3.771,6.626
40445,10.064,-1.38,0.702,16.802,4.481,5.87
40496,10.047,-1.485,0.75,17.092,5.008,4.832
40546,9.973,-1.483,0.747,17.153,5.374,3.519
40596,10.028,-1.442,0.862,16.672,5.374,2.061
40646,10.021,-1.432,0.951,15.458,5.061,1.206
40696,9.982,-1.447,0.992,13.84,4.504,0.229
40747,9.958,-1.506,0.968,11.618,3.71,-0.435
40797,9.927,-1.509,1.051,9.267,2.939,-1.412
40846,9.958,-1.447,1.083,6.55,2.076,-2.573
40896,9.896,-1.478,1.068,3.557,0.977,-3.733
40946,9.877,-1.463,1.121,0.565,-0.145,-4.603
40996,9.911,-1.363,1.066,-2.664,-1.198,-5.573
41047,9.923,-1.289,1.068,-5.351,-2.023,-6.031
41097,9.925,-1.186,0.992,-8.115,-3.023,-6.061
41146,9.901,-1.147,1.027,-10.069,-3.618,-5.809
41196,9.894,-1.102,0.917,-11.954,-4.0,-5.298
41246,9.944,-1.099,0.867,-12.947,-4.435,-4.786
41296,9.97,-1.123,0.805,-13.977,-4.29,-4.092
41347,10.059,-1.078,0.807,-14.382,-4.115,-3.817
41397,10.026,-1.042,0.8,-14.137,-3.924,-3.489
41446,10.093,-1.054,0.649,-13.618,-3.84,-3.244
41496,10.196,-1.039,0.627,-12.878,-3.443,-3.053
41546,10.121,-1.042,0.644,-11.947,-2.985,-2.656
41596,10.155,-0.951,0.625,-10.481,-2.565,-2.252
41647,10.172,-1.023,0.608,-9.145,-2.031,-1.618
41697,10.196,-1.023,0.594,-7.641,-1.412,-0.779
41746,10.16,-1.092,0.556,-5.954,-0.771,-0.366
41796,10.145,-1.092,0.556,-4.672,0.153,-0.061
41846,10.071,-1.123,0.656,-3.206,0.427,-0.061
41896,10.038,-1.176,0.716,-1.779,0.847,0.214
41947,10.011,-1.159,0.685,-0.626,0.985,0.107
41996,10.042,-1.178,0.594,0.344,1.16,-0.168
42046,10.04,-1.138,0.656,1.321,1.099,-0.069
42096,9.975,-1.138,0.781,2.122,0.908,0.015
42146,9.987,-1.159,0.637,2.908,0.42,0.519
42196,10.028,-1.063,0.723,3.725,0.435,0.71
42247,10.038,-1.063,0.692,4.947,0.534,1.42
42296,9.963,-1.147,0.599,6.153,1.038,1.71
42346,10.03,-1.207,0.414,7.878,1.473,1.656
42396,10.059,-1.226,0.563,9.473,2.45,1.695
42446,10.052,-1.274,0.608,10.733,3.58,1.275
42497,10.109,-1.308,0.649,12.153,4.58,0.489
42547,10.061,-1.308,0.666,13.13,5.076,-0.107
42596,10.093,-1.291,0.75,13.595,5.359,-0.756
42646,10.157,-1.233,0.752,13.931,5.466,-0.878
42696,10.014,-1.171,0.936,13.168,5.267,-0.992
42746,10.093,-1.159,0.86,12.237,4.985,-0.977
42797,10.009,-1.174,0.848,10.641,4.458,-0.878
42847,10.023,-1.198,0.975,8.634,4.145,-1.092
42896,9.968,-1.183,1.051,6.336,3.344,-0.893
42946,9.877,-1.195,1.049,3.855,2.756,-1.336
42996,9.896,-1.152,1.09,0.817,1.557,-1.405
43046,9.851,-1.171,1.142,-2.366,0.42,-1.344
43097,9.877,-1.162,1.068,-5.389,-0.489,-1.145
43147,9.839,-1.169,1.059,-8.244,-1.573,-0.74
43196,9.908,-1.162,1.054,-10.969,-2.214,-0.321
43246,9.908,-1.174,1.004,-13.389,-3.13,-0.107
43296,9.915,-1.212,1.011,-15.618,-3.626,-0.099
43346,9.97,-1.25,0.884,-17.176,-4.046,-0.443
43397,10.047,-1.245,0.865,-18.366,-4.397,-0.931
43447,10.033,-1.279,0.692,-18.985,-4.672,-1.809
43497,10.093,-1.207,0.776,-18.954,-4.992,-2.244
43547,10.174,-1.269,0.704,-18.595,-4.702,-2.748
43597,10.112,-1.166,0.618,-17.626,-4.489,-2.824
43648,10.169,-1.138,0.63,-16.092,-3.878,-2.947
43698,10.124,-1.217,0.508,-14.382,-3.008,-3.137
43747,10.129,-1.195,0.477,-12.237,-1.931,-3.176
43797,10.066,-1.245,0.52,-10.008,-1.252,-3.519
43847,10.028,-1.188,0.484,-7.763,-0.313,-3.687
43897,10.097,-1.106,0.515,-5.344,0.206,-4.137
43948,9.994,-1.14,0.51,-3.229,1.122,-4.336
43998,10.052,-1.157,0.635,-1.16,1.595,-3.985
44047,10.026,-1.015,0.58,0.687,1.969,-3.595
44097,10.076,-0.963,0.618,2.305,1.908,-2.824
44147,10.028,-0.956,0.687,3.84,2.13,-2.0
44197,10.073,-0.915,0.616,5.336,2.16,-1.015
44248,10.052,-0.893,0.572,6.924,2.481,-0.176
44298,10.033,-1.004,0.551,8.481,2.809,0.679
44347,9.954,-0.96,0.568,9.847,3.466,1.198
44397,10.009,-1.035,0.642,11.107,4.191,1.557
44447,10.006,-1.071,0.532,12.26,5.008,1.779
44497,10.052,-1.126,0.73,12.824,5.641,2.122
44548,10.066,-1.015,0.759,13.214,6.13,2.374
44598,10.093,-1.087,0.783,12.985,6.267,2.504
44647,10.085,-1.044,0.936,12.382,5.954,2.74
44697,10.09,-1.111,0.989,11.16,5.611,3.015
44747,10.052,-1.099,1.03,9.313,4.847,3.122
44797,10.014,-1.207,0.987,7.115,4.359,3.183
44848,9.966,-1.3,1.008,4.756,3.748,3.031
44898,10.006,-1.341,0.982,1.878,2.847,2.328
44948,9.982,-1.368,1.051,-1.115,1.931,1.977
44998,9.951,-1.327,1.102,-3.924,0.931,1.321
45048,9.958,-1.396,1.109,-7.26,-0.183,0.878
45099,9.913,-1.351,1.147,-10.038,-1.282,0.313
45149,9.944,-1.372,1.097,-12.855,-1.977,-0.183
45198,9.86,-1.403,0.982,-15.176,-2.84,-0.725
45248,9.956,-1.392,1.037,-17.183,-3.443,-1.473
45298,9.958,-1.502,0.932,-18.519,-3.733,-2.389
45348,9.947,-1.504,0.848,-19.511,-3.893,-3.473
45399,9.968,-1.42,0.855,-20.145,-4.137,-4.863
45449,10.057,-1.372,0.814,-20.031,-3.901,-5.908
45498,10.093,-1.341,0.733,-19.542,-3.771,-6.947
45548,10.078,-1.219,0.62,-18.756,-3.534,-7.168
45598,10.1,-1.123,0.63,-17.542,-3.229,-7.061
45648,10.167,-1.063,0.565,-15.992,-2.359,-6.55
45699,10.138,-1.097,0.575,-14.176,-1.74,-6.145
45749,10.069,-1.027,0.496,-12.244,-0.878,-5.481
45798,10.057,-1.068,0.525,-10.397,0.053,-4.969
45848,10.114,-1.054,0.558,-8.55,0.802,-4.427
45898,10.088,-0.994,0.618,-6.809,1.336,-3.947
45948,10.028,-0.927,0.587,-5.076,1.893,-3.45
45999,10.045,-0.872,0.62,-3.802,2.244,-3.069
46049,10.033,-0.922,0.678,-2.573,1.954,-2.168
46098,10.064,-0.807,0.575,-1.634,1.969,-1.099
46148,10.09,-0.857,0.659,-0.557,1.84,0.122
46198,10.097,-0.848,0.733,0.458,1.786,1.527
46248,10.057,-0.91,0.697,1.634,2.023,2.725
46299,10.052,-0.922,0.639,2.527,2.611,3.695
46348,10.054,-0.98,0.639,3.809,2.985,4.519
46398,10.083,-1.025,0.62,4.634,3.641,4.855
46448,10.038,-1.159,0.56,5.649,4.183,5.038
46498,10.045,-1.123,0.707,6.351,4.626,5.16
46548,9.992,-1.142,0.769,6.855,4.947,5.176
46599,10.057,-1.207,0.742,7.023,5.038,4.931
46648,10.064,-1.174,0.874,7.092,5.038,4.74
46698,10.047,-1.329,0.829,6.542,5.198,4.366
46748,10.021,-1.308,0.941,5.679,4.947,3.847
46798,10.033,-1.437,0.953,4.519,4.679,3.206
46849,9.958,-1.466,0.98,2.748,4.321,2.374
46899,9.942,-1.545,0.999,1.0,3.977,1.336
46948,9.891,-1.552,1.051,-1.458,3.328,0.038
46998,9.913,-1.523,1.061,-3.878,2.405,-1.122
47048,9.891,-1.454,1.059,-6.359,1.435,-2.275
47098,9.834,-1.523,0.939,-9.023,0.351,-3.351
47149,9.875,-1.444,1.083,-11.802,-0.282,-3.954
47199,9.899,-1.413,1.078,-14.221,-1.046,-4.679
47248,9.944,-1.382,1.035,-16.473,-1.809,-5.107
47298,9.963,-1.365,0.996,-18.397,-2.26,-5.618
47348,9.987,-1.308,0.956,-19.916,-2.649,-6.26
47398,10.03,-1.233,0.783,-21.153,-2.992,-6.656
47449,10.126,-1.257,0.793,-22.008,-3.176,-7.29
47499,10.026,-1.221,0.81,-22.382,-3.145,-7.466
47548,10.047,-1.03,0.759,-22.672,-3.023,-7.382
47598,10.109,-1.011,0.836,-22.145,-2.748,-6.931
47648,10.119,-1.008,0.707,-21.794,-2.359,-6.198
47698,10.117,-0.91,0.651,-21.023,-2.206,-5.229
47749,10.136,-0.92,0.62,-19.962,-1.779,-4.298
47799,10.157,-0.922,0.637,-18.611,-1.382,-3.481
47849,10.141,-0.932,0.563,-17.489,-0.779,-2.565
47899,10.023,-0.932,0.582,-15.847,-0.023,-1.756
47949,10.057,-0.879,0.683,-14.313,0.244,-1.115
48000,10.054,-0.905,0.608,-12.924,0.595,-0.405
48050,10.061,-0.924,0.558,-11.031,0.481,0.389
48099,9.999,-0.922,0.599,-9.305,0.954,1.305
48149,10.069,-0.936,0.654,-7.603,0.977,2.214
48199,10.028,-0.951,0.618,-5.58,1.344,3.107
48249,10.009,-1.001,0.508,-3.443,2.046,3.87
48300,10.102,-1.001,0.536,-1.16,2.802,4.389
48350,10.002,-1.114,0.546,0.695,3.71,4.794
48399,10.04,-1.111,0.548,2.687,4.588,5.046
48449,9.97,-1.202,0.481,4.58,5.42,5.099
48499,9.97,-1.212,0.671,6.214,6.145,5.023
48549,10.002,-1.217,0.714,7.229,6.573,4.802
48600,10.066,-1.26,0.723,7.71,6.802,4.313
48650,10.033,-1.274,0.757,7.863,7.061,3.771
48699,10.014,-1.415,0.812,7.366,6.863,3.42
48749,9.911,-1.449,0.927,6.458,6.595,2.611
48799,9.997,-1.461,0.884,4.748,6.389,1.786
48849,9.932,-1.485,0.982,2.443,6.076,0.573
48900,9.961,-1.439,1.059,-0.061,5.084,-0.252
48950,9.891,-1.492,1.106,-3.305,4.29,-1.412
48999,9.911,-1.403,1.257,-6.214,3.168,-2.137
49049,9.867,-1.406,1.178,-9.947,1.985,-2.969
49099,9.844,-1.413,1.202,-13.336,0.29,-3.588
49149,9.879,-1.336,1.145,-17.015,-0.649,-4.122
49200,9.92,-1.289,1.138,-20.153,-1.847,-4.397
49250,9.937,-1.31,1.013,-22.893,-2.511,-5.053
49300,9.982,-1.346,1.049,-25.145,-3.053,-5.527
49350,9.987,-1.25,0.927,-26.947,-3.573,-5.794
49400,10.042,-1.193,0.802,-28.191,-3.573,-6.443
49451,10.069,-1.169,0.817,-28.939,-3.473,-6.496
49501,10.136,-1.109,0.783,-29.145,-3.481,-6.672
49550,10.143,-1.087,0.769,-28.84,-3.511,-6.366
49600,10.078,-1.011,0.826,-28.229,-3.382,-6.122
49650,10.081,-0.956,0.687,-26.847,-2.969,-5.45
49700,10.059,-0.963,0.604,-25.244,-2.695,-5.092
49751,10.064,-0.982,0.582,-23.229,-1.824,-4.221
49801,10.114,-1.006,0.551,-21.137,-0.901,-3.786
49850,10.126,-0.939,0.477,-18.634,0.267,-2.969
49900,10.141,-1.004,0.46,-16.229,1.626,-2.313
49950,10.064,-0.889,0.481,-13.908,2.489,-1.382
50000,10.109,-0.862,0.491,-11.702,3.206,-0.702
50051,10.042,-0.891,0.536,-9.916,3.626,-0.115
50101,10.097,-0.896,0.668,-8.008,3.695,0.908
50150,9.997,-0.992,0.671,-6.534,3.908,1.588
50200,10.045,-0.994,0.692,-5.198,3.595,2.344
50250,10.069,-0.994,0.654,-3.962,3.824,3.031
50300,10.021,-1.056,0.675,-3.0,4.053,3.45
50351,10.04,-1.104,0.589,-2.046,4.466,3.802
50401,10.021,-1.106,0.618,-1.344,5.145,4.145
50450,10.064,-1.138,0.716,-0.763,5.695,4.183
50500,10.018,-1.109,0.821,-0.786,6.084,4.489
50550,10.006,-1.111,0.821,-0.992,5.992,4.542
50600,10.076,-1.147,0.874,-1.55,5.763,4.947
50651,9.992,-1.224,0.817,-2.679,5.298,4.916
50700,10.009,-1.248,0.996,-3.916,4.672,4.779
50750,9.958,-1.291,0.941,-5.504,4.176,4.603
50800,9.913,-1.38,0.992,-7.191,3.847,3.84
50850,9.975,-1.425,0.896,-9.038,3.069,3.198
50900,9.918,-1.435,0.91,-10.962,2.595,2.191
50951,9.911,-1.449,0.901,-12.649,2.145,1.206
51000,9.829,-1.418,0.989,-14.481,1.534,0.489
51050,9.899,-1.471,0.975,-16.313,0.878,-0.473
51100,9.942,-1.502,0.958,-18.046,0.29,-1.565
51150,9.901,-1.463,0.953,-19.328,-0.374,-2.321
51201,9.923,-1.535,0.917,-20.504,-1.084,-3.366
51251,9.908,-1.451,0.795,-21.427,-0.908,-4.313
51300,9.975,-1.456,0.781,-21.748,-0.847,-5.29
51350,10.002,-1.447,0.812,-21.916,-0.458,-6.328
51400,10.023,-1.317,0.692,-21.649,-0.336,-6.977
51450,10.059,-1.329,0.745,-21.275,0.046,-7.664
51501,10.021,-1.317,0.81,-20.802,0.229,-8.107
51551,10.033,-1.253,0.639,-20.16,0.321,-8.328
51600,10.071,-1.13,0.723,-19.389,0.29,-8.344
51650,10.033,-1.063,0.702,-18.687,0.374,-8.168
51700,10.117,-1.063,0.74,-18.038,0.695,-7.84
51750,10.129,-0.936,0.623,-17.0,1.214,-7.42
51801,10.05,-0.924,0.625,-16.061,1.84,-6.573
51851,10.073,-0.874,0.604,-15.115,2.275,-5.489
51900,10.014,-0.881,0.69,-14.359,2.962,-4.504
51950,10.1,-0.886,0.714,-14.008,3.359,-3.458
52000,10.078,-0.917,0.769,-13.771,3.656,-2.687
52050,10.023,-0.913,0.802,-13.824,3.244,-1.527
52101,9.992,-0.901,0.836,-14.221,3.008,-0.718
52151,10.023,-0.939,0.845,-14.229,2.397,0.023
52201,9.992,-0.929,0.936,-14.817,1.672,0.771
52251,10.1,-0.836,0.781,-15.122,1.221,1.817
52301,10.093,-0.881,0.778,-15.198,1.069,2.863
52352,10.052,-0.913,0.699,-15.076,1.153,3.817
52402,10.035,-0.891,0.723,-14.954,1.443,4.824
52451,10.141,-0.886,0.683,-14.382,1.656,5.679
52501,10.152,-0.958,0.639,-13.748,2.107,6.427
52551,10.09,-1.039,0.668,-13.046,2.374,7.229
52601,10.172,-1.047,0.781,-12.473,2.634,7.771
52652,10.059,-1.174,0.651,-11.832,2.595,8.191
52702,10.119,-1.226,0.829,-11.221,3.069,8.168
52751,10.026,-1.296,0.774,-10.84,3.084,7.931
52801,9.968,-1.312,0.623,-10.473,3.038,7.916
52851,9.939,-1.372,0.721,-10.275,2.969,7.115
52901,9.923,-1.569,0.721,-9.985,3.099,6.557
52952,9.872,-1.521,0.723,-9.985,3.282,5.511
53002,9.827,-1.619,0.798,-9.908,3.107,4.511
53051,9.877,-1.686,0.752,-9.939,3.344,3.115
53101,9.848,-1.756,0.771,-10.389,2.893,1.443
53151,9.906,-1.779,0.843,-10.489,2.931,-0.344
53201,9.846,-1.76,0.86,-10.794,2.573,-2.275
53252,9.923,-1.839,0.781,-11.397,2.519,-4.099
53302,9.832,-1.717,0.786,-12.008,2.42,-5.924
53351,9.834,-1.72,0.855,-12.809,2.466,-7.893
53401,9.803,-1.698,0.795,-13.412,2.229,-9.313
53451,9.827,-1.684,0.814,-14.359,2.389,-11.229
53556,9.935,-1.432,0.889,-16.13,1.641,-13.748
53605,9.963,-1.346,0.927,-17.321,1.031,-14.55
53655,10.026,-1.279,0.855,-18.115,0.672,-15.122
53705,9.958,-1.047,0.901,-18.84,0.26,-14.817
53755,10.061,-0.924,0.81,-19.366,0.191,-14.267
53806,10.088,-0.81,0.783,-19.954,0.13,-12.847
53856,10.085,-0.726,0.752,-20.092,0.527,-11.359
53905,10.184,-0.587,0.73,-20.145,0.58,-9.603
53955,10.133,-0.592,0.75,-20.137,1.069,-7.527
54005,10.239,-0.484,0.74,-20.13,1.305,-5.405
54055,10.222,-0.517,0.685,-19.847,1.351,-3.366
54106,10.227,-0.496,0.73,-19.748,1.519,-1.122
54156,10.227,-0.462,0.798,-19.809,1.427,1.16
54206,10.162,-0.491,0.714,-19.595,1.397,3.389
54256,10.191,-0.414,0.709,-19.359,1.45,5.679
54306,10.239,-0.496,0.757,-19.244,1.237,8.008
54356,10.126,-0.558,0.702,-19.176,1.214,10.389
54407,10.073,-0.627,0.754,-18.794,1.244,12.534
54456,10.109,-0.733,0.69,-18.504,1.229,14.137
54506,10.073,-0.879,0.692,-18.183,1.153,15.504
54556,10.085,-1.02,0.814,-17.878,1.412,16.206
54606,10.038,-1.238,0.728,-17.305,1.328,16.618
54657,10.047,-1.315,0.716,-16.664,1.481,16.252
54707,9.978,-1.432,0.719,-16.115,1.221,15.42
54756,9.939,-1.595,0.63,-15.099,1.221,14.198
54806,9.923,-1.684,0.666,-14.42,1.275,12.718
54856,9.841,-1.904,0.639,-13.397,1.366,10.634
54906,9.851,-2.012,0.529,-12.229,1.618,8.198
54957,9.731,-2.055,0.63,-10.87,1.855,5.527
55007,9.793,-2.17,0.666,-9.496,2.29,2.595
55056,9.731,-2.189,0.649,-8.389,2.695,-0.618
55106,9.798,-2.225,0.606,-6.985,2.779,-4.053
55156,9.772,-2.16,0.594,-5.763,3.137,-7.565
55206,9.712,-2.062,0.616,-4.626,3.42,-10.58
55257,9.774,-2.067,0.656,-3.718,3.679,-13.565
55307,9.844,-1.88,0.663,-2.947,3.809,-15.924
55356,9.762,-1.808,0.675,-2.603,4.206,-17.71
55406,9.856,-1.583,0.738,-2.42,4.366,-19.282
55456,9.894,-1.494,0.742,-2.435,4.45,-20.298
55506,9.87,-1.284,0.946,-3.038,4.328,-20.969
55557,9.973,-1.128,1.023,-3.878,3.87,-21.206
55607,9.987,-0.965,0.872,-5.153,3.435,-20.87
55657,10.045,-0.769,0.91,-6.519,2.771,-19.74
55707,10.081,-0.529,0.946,-7.947,2.0,-18.107
55757,10.071,-0.345,0.927,-9.733,1.351,-15.389
55808,10.131,-0.242,0.999,-11.366,0.687,-12.137
55858,10.193,-0.153,0.898,-12.84,0.458,-8.405
55907,10.227,-0.065,0.843,-14.252,0.206,-4.489
55957,10.184,-0.072,0.848,-15.74,0.046,-0.992
56007,10.27,-0.177,0.788,-16.855,-0.214,2.756
56057,10.26,-0.196,0.884,-17.992,-0.366,6.053
56108,10.243,-0.338,0.905,-18.771,-0.466,9.092
56158,10.227,-0.386,0.814,-19.656,-0.603,11.718
56207,10.126,-0.534,0.817,-20.603,-0.962,13.924
56257,10.224,-0.668,0.759,-21.099,-1.198,15.672
56307,10.136,-0.774,0.862,-21.626,-1.832,17.221
56357,10.148,-0.936,0.793,-21.901,-2.244,18.214
56408,10.126,-1.092,0.786,-21.634,-2.786,18.87
56458,10.097,-1.248,0.661,-21.031,-3.053,18.672
56507,10.102,-1.392,0.68,-20.344,-3.084,18.229
56557,10.117,-1.559,0.642,-18.847,-3.252,17.176
56607,10.042,-1.72,0.539,-16.817,-2.656,15.511
56657,9.98,-1.868,0.472,-14.176,-1.733,13.435
56708,9.918,-1.94,0.398,-11.397,-0.977,11.084
56758,9.942,-2.031,0.496,-8.389,-0.023,8.328
56807,9.918,-2.103,0.405,-5.321,0.931,5.336
56857,9.745,-2.156,0.381,-2.29,2.046,2.489
56907,9.757,-2.148,0.338,0.954,2.87,-0.725
56957,9.707,-2.211,0.536,3.588,3.733,-3.908
57008,9.714,-2.194,0.568,5.824,4.008,-7.206
57058,9.618,-2.112,0.673,7.977,4.397,-10.237
57108,9.638,-2.11,0.63,9.458,4.344,-13.221
57158,9.626,-1.964,0.644,10.534,4.504,-15.992
57208,9.69,-1.772,0.685,11.244,4.405,-18.053
57259,9.705,-1.669,0.776,11.206,4.015,-19.809
57309,9.702,-1.377,0.81,11.069,4.0,-20.695
57358,9.827,-1.284,0.862,10.267,3.725,-21.191
57408,9.894,-1.123,0.917,9.29,3.267,-21.031
57458,9.918,-0.92,0.831,8.244,2.809,-20.45
57508,10.04,-0.757,0.891,6.458,2.267,-19.313
57559,10.141,-0.673,0.994,4.893,1.481,-17.969
57609,10.205,-0.419,1.013,2.878,0.802,-15.87
57658,10.198,-0.366,0.96,1.145,0.122,-12.924
57708,10.172,-0.125,0.965,-0.618,-0.573,-9.763
57758,10.22,-0.108,1.068,-2.229,-1.031,-6.0
57808,10.301,-0.041,0.941,-3.748,-1.58,-1.84
57859,10.284,-0.096,0.843,-4.954,-2.0,2.031
57909,10.224,-0.192,0.934,-6.061,-2.206,5.809
57958,10.246,-0.237,0.862,-6.702,-2.321,8.985
58008,10.239,-0.393,0.73,-6.527,-2.366,11.718
58058,10.222,-0.536,0.671,-6.55,-2.298,13.962
58108,10.255,-0.704,0.683,-6.282,-1.878,15.42
58159,10.133,-0.843,0.659,-5.702,-1.313,16.695
58209,10.126,-1.063,0.661,-5.084,-1.031,17.176
58258,10.052,-1.2,0.572,-4.328,-0.55,17.183
58308,9.978,-1.315,0.675,-3.626,0.015,16.908
58358,10.006,-1.509,0.616,-2.733,0.267,16.198
58408,9.956,-1.593,0.635,-2.252,0.336,14.992
58459,9.932,-1.696,0.747,-1.504,0.466,13.489
58508,9.966,-1.796,0.745,-1.13,0.031,11.603
58558,9.961,-1.911,0.766,-0.672,0.16,9.412
58608,9.932,-1.94,0.709,-0.183,0.153,6.748
58658,9.949,-1.95,0.759,0.046,-0.023,4.26
58708,9.884,-2.014,0.716,0.344,0.198,1.374
58759,9.887,-2.0,0.733,0.954,0.282,-1.412
58808,9.803,-1.988,0.673,0.908,0.458,-4.183
58858,9.808,-1.868,0.783,1.183,0.603,-6.389
58908,9.762,-1.894,0.771,1.359,0.466,-8.618
58958,9.729,-1.859,0.735,1.16,0.42,-10.74
59009,9.729,-1.722,0.836,1.244,-0.031,-12.45
59059,9.762,-1.641,0.798,1.527,-0.115,-14.153
59108,9.748,-1.468,0.781,1.832,-0.618,-15.229
59158,9.836,-1.401,0.733,2.0,-0.992,-16.16
59208,9.798,-1.238,0.747,2.496,-0.809,-16.58
59258,9.863,-1.109,0.771,3.092,-0.611,-16.466
59309,9.992,-0.987,0.623,3.992,-0.176,-15.687
59359,9.97,-0.865,0.683,4.84,0.366,-14.702
59408,9.93,-0.798,0.666,5.695,0.802,-13.244
59458,10.057,-0.766,0.675,6.695,1.382,-11.656
59508,10.021,-0.62,0.668,7.58,1.718,-10.008
59558,10.064,-0.551,0.714,8.115,1.908,-8.244
59609,10.03,-0.553,0.627,8.527,2.031,-5.863
59659,10.038,-0.484,0.704,8.893,2.153,-3.695
59708,10.22,-0.41,0.826,9.084,2.298,-1.206
59758,10.2,-0.436,0.788,8.992,2.221,1.557
59808,10.294,-0.536,0.745,8.672,2.29,3.786
59858,10.22,-0.656,0.843,8.145,2.023,5.863
59909,10.186,-0.759,0.877,7.374,1.962,7.466
59959,10.162,-0.85,0.862,6.611,1.504,8.664
60009,10.143,-0.968,0.879,5.763,1.26,9.382
60059,10.136,-1.121,0.829,4.695,1.221,9.794
60109,10.176,-1.118,0.843,3.542,0.832,9.725
60160,10.138,-1.214,0.86,2.084,0.718,9.519
60210,10.021,-1.277,0.855,0.954,0.626,9.008
60259,10.03,-1.368,0.963,-0.336,0.298,8.496
60309,10.066,-1.392,0.953,-1.74,-0.107,7.855
60359,10.03,-1.442,0.917,-3.13,-0.794,6.802
60409,10.018,-1.425,0.936,-4.412,-1.328,6.076
60460,10.045,-1.451,0.929,-5.435,-1.931,5.321
60510,10.018,-1.473,0.92,-6.504,-2.366,4.542
60559,10.035,-1.509,0.807,-6.931,-2.679,3.725
60609,10.03,-1.516,0.86,-7.137,-2.962,2.534
60659,9.932,-1.49,0.786,-7.015,-3.16,1.649
60709,10.018,-1.557,0.702,-6.351,-2.977,0.282
60760,9.973,-1.49,0.692,-5.336,-2.802,-0.702
60810,9.903,-1.574,0.604,-4.16,-2.244,-1.763
60859,9.896,-1.504,0.647,-2.473,-1.687,-2.916
60909,9.793,-1.535,0.532,-0.443,-1.061,-3.908
60959,9.836,-1.535,0.546,1.595,-0.542,-4.626
61009,9.894,-1.423,0.539,3.908,0.305,-5.397
61060,9.836,-1.492,0.484,5.977,0.885,-6.305
61110,9.915,-1.451,0.517,7.824,1.786,-7.183
61159,9.796,-1.444,0.616,9.336,2.427,-7.962
61209,9.908,-1.329,0.627,10.977,2.817,-8.634
61259,9.858,-1.31,0.671,11.84,3.115,-9.038
61309,9.87,-1.3,0.728,12.275,3.267,-9.55
61360,9.951,-1.217,0.831,12.542,3.275,-9.664
61410,9.947,-1.147,0.896,12.214,2.718,-9.672
61460,9.973,-1.123,0.934,11.305,2.412,-9.473
61510,10.047,-1.035,0.886,10.771,1.725,-9.176
61560,10.052,-0.968,0.963,9.412,1.374,-8.84
61611,10.095,-0.951,0.987,8.046,0.733,-7.931
61661,10.09,-0.829,0.946,6.298,0.206,-6.985
61710,10.078,-0.776,0.977,4.641,0.084,-5.618
61760,10.117,-0.783,0.972,3.229,-0.557,-4.16
61810,10.191,-0.695,0.97,1.74,-1.183,-2.611
61860,10.174,-0.683,0.948,0.702,-1.847,-1.115
61911,10.205,-0.726,0.905,-0.435,-2.389,0.244
61961,10.16,-0.8,0.85,-1.13,-2.687,1.557
62010,10.16,-0.781,0.86,-1.527,-2.893,2.573
62060,10.076,-0.836,0.759,-1.45,-2.87,3.649
62110,10.057,-0.905,0.639,-1.069,-2.305,4.634
62160,10.069,-0.905,0.68,-0.344,-1.916,5.298
62211,10.112,-0.932,0.651,0.595,-1.229,5.954
62261,10.038,-0.987,0.644,1.687,-0.748,6.603
62310,10.09,-0.989,0.627,2.809,-0.237,7.145
62360,10.083,-0.996,0.632,3.809,-0.244,7.634
62410,10.093,-1.08,0.635,4.847,0.344,8.145
62460,10.064,-1.159,0.733,6.176,0.237,8.664
62511,10.136,-1.176,0.671,7.252,0.55,9.092
62561,10.117,-1.238,0.649,8.16,1.038,9.344
62610,10.071,-1.394,0.68,9.26,1.84,9.16
62660,10.061,-1.497,0.635,10.084,2.374,8.519
62710,10.035,-1.595,0.683,10.496,2.924,7.496
62760,9.944,-1.66,0.778,10.534,3.305,6.061
62811,9.968,-1.708,0.817,10.244,3.29,4.252
62860,9.994,-1.765,0.913,9.603,3.069,2.214
62910,9.877,-1.839,0.965,8.504,2.42,0.0
62960,9.92,-1.768,1.035,6.718,1.939,-2.176
63010,9.882,-1.775,1.037,4.733,1.115,-4.153
63060,9.796,-1.751,0.992,2.748,0.42,-6.214
63111,9.872,-1.674,1.056,0.466,-0.351,-8.008
63160,9.772,-1.708,1.047,-1.58,-1.137,-9.603
63210,9.844,-1.653,0.984,-3.786,-1.763,-11.16
63260,9.844,-1.574,1.025,-5.847,-2.336,-12.145
63310,9.81,-1.468,0.941,-7.71,-2.702,-13.313
63361,9.81,-1.353,0.934,-9.031,-3.351,-13.969
63411,9.891,-1.281,0.941,-10.008,-3.977,-14.389
63460,9.954,-1.123,0.898,-10.679,-4.374,-14.504
63510,10.057,-0.963,0.702,-10.847,-4.603,-14.214
63560,10.006,-0.881,0.608,-10.244,-4.305,-13.504
63610,10.121,-0.74,0.575,-9.107,-3.809,-12.519
63661,10.15,-0.635,0.522,-7.771,-2.954,-10.74
63711,10.124,-0.536,0.548,-5.901,-1.802,-8.794
63760,10.174,-0.467,0.429,-3.885,-0.725,-6.328
63810,10.191,-0.493,0.522,-1.786,0.092,-4.099
63860,10.294,-0.51,0.426,0.458,1.16,-1.603
63910,10.239,-0.539,0.515,2.328,1.756,0.74
63961,10.217,-0.522,0.589,4.366,2.137,2.718
64011,10.181,-0.599,0.63,6.115,2.527,4.496
64060,10.215,-0.654,0.719,7.634,3.168,6.145
64110,10.222,-0.687,0.587,8.954,3.71,7.603
64160,10.119,-0.771,0.637,9.931,4.427,8.855
64210,10.112,-0.8,0.661,10.695,4.771,10.115
64261,10.174,-0.922,0.848,10.702,5.031,11.008
64311,10.152,-0.996,0.819,10.611,5.275,11.763
64361,10.097,-1.006,0.786,9.893,5.206,12.443
64411,10.071,-1.133,0.922,8.901,4.725,13.015
64461,10.002,-1.269,0.972,7.305,4.038,13.038
64512,10.064,-1.377,1.006,5.748,3.611,13.107
64562,10.028,-1.475,0.946,3.672,3.076,12.328
64611,10.009,-1.645,1.013,1.435,2.511,11.153
64661,9.901,-1.765,1.03,-0.786,1.985,9.198
64711,9.966,-1.875,0.992,-3.221,1.26,7.092
64761,9.867,-1.933,1.02,-5.725,0.725,4.542
64812,9.882,-1.99,1.047,-8.229,-0.176,1.542
64862,9.832,-1.971,1.011,-10.634,-1.115,-1.221
64911,9.856,-1.94,0.956,-12.573,-2.023,-3.626
64961,9.844,-1.899,1.032,-14.382,-2.595,-6.405
65011,9.798,-1.882,0.924,-15.725,-3.519,-8.863
65061,9.791,-1.823,0.901,-16.542,-3.794,-11.038
65112,9.844,-1.775,0.771,-16.412,-3.977,-13.26
65162,9.815,-1.645,0.68,-15.962,-3.771,-15.107
65211,9.729,-1.523,0.592,-15.015,-3.183,-16.366
65261,9.82,-1.408,0.527,-13.733,-2.252,-17.061
65311,9.803,-1.281,0.544,-12.13,-1.366,-17.427
65361,9.891,-1.049,0.568,-9.901,-0.443,-17.504
65412,9.932,-0.946,0.637,-8.0,0.298,-16.885
65462,9.935,-0.872,0.63,-5.893,0.931,-16.008
65511,10.064,-0.695,0.577,-4.084,1.382,-14.405
65561,10.15,-0.544,0.63,-2.191,1.939,-12.672
65611,10.188,-0.453,0.604,-0.641,2.458,-10.115
65661,10.152,-0.283,0.58,0.756,3.229,-7.328
65712,10.15,-0.254,0.68,1.931,3.878,-4.244
65762,10.241,-0.29,0.675,2.519,4.397,-0.672
65812,10.282,-0.283,0.759,2.74,4.718,2.13
65862,10.181,-0.374,0.79,2.947,4.58,4.985
65912,10.232,-0.536,0.824,2.366,4.13,7.26
65963,10.217,-0.627,0.901,1.679,3.702,8.939
66013,10.133,-0.719,0.934,0.672,3.168,10.481
66062,10.15,-0.762,0.929,-0.473,2.626,11.687
66112,10.16,-0.869,0.884,-1.565,2.176,12.458
66162,10.143,-0.987,0.908,-2.931,1.817,13.344
66212,10.078,-1.162,0.86,-4.481,1.634,13.321
66263,10.071,-1.284,0.843,-5.748,1.275,13.092
66313,10.179,-1.396,0.905,-6.718,0.588,12.443
66362,10.078,-1.418,0.893,-7.84,0.321,11.656
66412,10.198,-1.535,0.908,-9.008,-0.328,10.473
66462,10.076,-1.621,0.843,-9.359,-0.954,9.298
66512,10.052,-1.691,0.855,-9.511,-1.145,8.038
66563,10.04,-1.72,0.764,-9.58,-1.366,6.763
66613,9.992,-1.803,0.733,-8.977,-1.214,4.916
66662,9.956,-1.89,0.702,-8.26,-0.687,3.031
66712,9.851,-1.892,0.556,-7.382,-0.244,0.763
66762,9.896,-1.899,0.687,-5.985,0.443,-1.794
66812,9.812,-1.839,0.728,-4.87,0.977,-4.443
66863,9.875,-1.82,0.661,-3.855,1.244,-6.832
66913,9.827,-1.842,0.733,-2.962,1.695,-8.962
66962,9.786,-1.72,0.642,-1.763,1.87,-10.87
67012,9.856,-1.6,0.719,-1.252,1.863,-11.924
67062,9.863,-1.504,0.757,-0.947,2.046,-13.176
67112,9.851,-1.372,0.769,-0.489,1.916,-14.008
67163,9.851,-1.332,0.812,-0.588,2.099,-14.122
67212,9.791,-1.265,0.776,-0.771,2.115,-14.183
67262,9.803,-1.083,0.781,-1.305,2.221,-14.137
67312,9.872,-1.001,0.915,-1.893,2.237,-13.519
67362,9.853,-0.896,0.879,-2.817,1.527,-12.733
67412,9.899,-0.81,0.944,-3.924,1.336,-11.412
67463,9.994,-0.673,1.004,-5.244,0.634,-10.191
67512,10.009,-0.553,0.807,-6.58,0.046,-8.275
67562,10.042,-0.544,0.862,-7.725,-0.481,-6.13
67612,10.071,-0.477,0.872,-8.595,-0.733,-3.878
67662,10.121,-0.508,0.776,-9.382,-0.977,-1.382
67713,10.078,-0.563,0.786,-9.924,-1.015,1.214
67763,10.162,-0.556,0.872,-10.443,-0.962,3.427
67812,10.097,-0.618,0.807,-10.809,-1.069,5.298
67862,10.105,-0.738,0.695,-10.534,-1.206,6.863
67912,10.198,-0.85,0.723,-10.321,-1.115,7.748
67962,10.157,-0.948,0.733,-9.809,-0.969,8.672
68013,10.119,-1.023,0.738,-8.947,-0.931,9.16
68063,10.167,-1.099,0.604,-7.855,-0.481,9.313
68112,10.167,-1.193,0.627,-6.527,-0.107,9.26
68162,10.083,-1.253,0.599,-5.122,0.435,8.969
68212,10.097,-1.336,0.606,-3.359,1.023,8.29
68262,10.141,-1.444,0.525,-1.885,1.771,7.13
68313,10.083,-1.468,0.594,-0.351,1.977,6.237
68363,10.105,-1.478,0.666,0.809,2.466,5.42
68412,10.054,-1.456,0.697,2.038,2.809,4.275
68462,9.987,-1.49,0.709,2.809,2.985,3.611
68512,10.045,-1.415,0.608,3.481,3.191,2.931
68562,10.05,-1.471,0.723,3.924,3.412,2.305
68613,9.954,-1.425,0.726,4.023,3.458,1.359
68663,10.035,-1.523,0.738,3.679,3.527,0.382
68713,9.975,-1.597,0.733,3.42,3.756,-0.87
68763,9.947,-1.557,0.972,2.588,3.695,-2.153
68813,9.92,-1.53,0.881,1.13,3.389,-3.634
68864,9.879,-1.485,0.869,-0.382,2.71,-4.802
68914,9.915,-1.43,0.941,-2.252,2.107,-5.954
68963,9.896,-1.442,1.025,-4.412,1.359,-6.595
69013,9.836,-1.38,1.037,-6.519,0.412,-6.931
69063,9.839,-1.375,1.042,-8.603,-0.55,-7.137
69113,9.824,-1.308,1.051,-10.557,-1.252,-7.382
69164,9.853,-1.224,0.944,-12.542,-1.87,-7.573
69214,9.76,-1.253,0.817,-13.977,-2.084,-7.679
69263,9.841,-1.171,0.91,-14.954,-2.313,-7.847
69313,9.918,-1.19,0.769,-15.649,-2.397,-7.969
69363,9.848,-1.114,0.757,-16.099,-2.519,-7.985
69413,9.97,-1.03,0.788,-16.176,-2.641,-8.015
69464,9.966,-0.958,0.647,-15.328,-2.565,-7.344
69514,10.085,-0.915,0.627,-14.489,-2.13,-6.794
69563,10.083,-0.905,0.587,-13.084,-1.71,-5.824
69613,10.026,-0.903,0.551,-11.206,-1.023,-4.939
69663,10.097,-0.838,0.546,-9.595,0.053,-3.916
69713,10.112,-0.783,0.556,-7.618,0.924,-2.634
69764,10.16,-0.824,0.489,-5.863,1.763,-1.397
69814,10.167,-0.841,0.534,-4.153,2.611,-0.107
69863,10.2,-0.766,0.548,-2.542,2.901,1.382
69913,10.232,-0.881,0.582,-0.962,3.137,2.359
69963,10.277,-0.913,0.711,0.221,3.305,3.466
70013,10.21,-0.996,0.798,0.924,3.496,3.916
70064,10.234,-1.006,0.73,1.656,3.847,3.954
70114,10.15,-1.051,0.781,1.908,4.16,4.527
70164,10.203,-1.118,0.771,1.969,4.443,4.122
70214,10.232,-1.142,0.879,1.397,4.573,4.008
70264,10.179,-1.154,0.853,0.603,4.382,4.076
70315,10.145,-1.121,0.843,-0.718,4.015,4.061
70365,10.16,-1.121,0.987,-2.198,3.359,4.198
70414,10.052,-1.056,1.02,-3.916,2.435,4.733
70464,10.064,-1.109,1.054,-5.672,1.565,5.405
70514,10.014,-1.162,0.972,-7.679,0.557,5.947
70564,9.966,-1.178,0.934,-9.244,-0.183,6.405
70615,9.944,-1.284,0.951,-10.794,-0.527,6.595
70665,9.875,-1.418,0.855,-11.687,-0.718,6.389
70714,9.927,-1.432,0.86,-12.863,-0.985,5.397
70764,9.937,-1.461,0.814,-13.282,-0.962,3.992
70814,9.867,-1.578,0.752,-13.374,-0.87,2.756
70864,9.947,-1.645,0.723,-13.214,-0.832,1.053
70915,9.875,-1.691,0.719,-13.046,-0.985,-0.71
70965,9.81,-1.684,0.747,-12.573,-1.145,-1.985
71014,9.834,-1.665,0.608,-11.359,-1.122,-3.328
71064,9.784,-1.631,0.627,-10.237,-0.519,-4.863
71114,9.76,-1.612,0.592,-8.931,-0.16,-5.977
71164,9.767,-1.581,0.503,-7.55,0.496,-7.046
71215,9.779,-1.566,0.663,-5.855,1.038,-8.275
71265,9.815,-1.492,0.656,-4.26,1.718,-9.611
71314,9.75,-1.502,0.678,-2.687,2.275,-10.58
71364,9.915,-1.439,0.577,-1.29,2.626,-11.626
71414,9.97,-1.289,0.747,-0.45,2.954,-12.191
71464,9.947,-1.162,0.733,0.511,3.191,-12.55
71515,10.071,-1.025,0.838,1.214,3.176,-12.26
71564,10.033,-0.948,0.781,1.252,3.443,-11.511
71614,10.097,-0.812,0.723,1.122,3.328,-10.504
71664,10.126,-0.776,0.867,0.832,3.389,-9.29
71714,10.186,-0.687,0.86,0.267,3.153,-7.55
71764,10.167,-0.656,0.841,-0.878,2.664,-5.809
71815,10.181,-0.57,0.917,-2.137,2.008,-3.626
71864,10.284,-0.601,0.929,-3.58,1.55,-1.511
71914,10.275,-0.541,0.987,-4.924,0.733,0.748
71964,10.26,-0.58,0.91,-6.42,0.168,2.817
72014,10.306,-0.649,0.819,-7.58,-0.183,4.672
72065,10.296,-0.728,0.802,-8.802,-0.168,5.939
72115,10.284,-0.898,0.889,-9.527,-0.504,7.069
72164,10.145,-0.901,0.848,-10.298,-0.42,7.58
72214,10.217,-0.951,0.766,-11.0,-0.733,8.046
72264,10.083,-1.006,0.819,-11.305,-0.771,8.618
72314,10.102,-1.025,0.833,-11.321,-1.084,8.87
72365,10.081,-1.092,0.867,-11.443,-1.405,9.443
72415,10.052,-1.111,0.74,-11.153,-1.702,9.794
72464,10.011,-1.166,0.654,-10.511,-1.84,10.29
72514,10.006,-1.279,0.707,-9.237,-1.45,10.595
72564,9.99,-1.339,0.575,-7.908,-1.298,10.511
72614,10.006,-1.478,0.572,-6.275,-0.611,9.931
72665,9.949,-1.602,0.616,-4.328,0.359,8.794
72715,9.956,-1.66,0.534,-2.458,1.198,7.183
72764,9.817,-1.842,0.527,-0.557,2.214,5.061
72814,9.832,-1.94,0.608,1.153,2.916,2.664
72864,9.805,-1.926,0.632,2.679,3.427,-0.115
72914,9.791,-1.906,0.745,3.847,3.672,-2.809
72965,9.753,-1.93,0.776,4.42,3.534,-5.183
73015,9.76,-1.904,0.783,4.427,3.366,-7.664
73065,9.745,-1.799,0.898,4.305,3.038,-9.573
73115,9.796,-1.691,0.838,3.84,2.74,-11.328
73165,9.827,-1.59,0.86,2.565,2.496,-12.718
73216,9.834,-1.533,0.917,1.45,2.061,-13.947
73266,9.87,-1.382,0.896,0.26,1.679,-14.802
73315,9.918,-1.348,1.049,-1.206,1.076,-15.298
73365,9.925,-1.214,0.884,-2.985,0.427,-15.473
73415,10.006,-1.075,0.941,-4.679,-0.191,-15.58
73465,10.021,-0.893,0.944,-6.099,-0.58,-14.84
73516,10.035,-0.762,0.881,-7.191,-0.931,-13.74
73566,9.978,-0.659,0.872,-8.679,-1.351,-12.336
73615,10.083,-0.594,0.853,-9.504,-1.504,-10.366
73665,10.129,-0.455,0.932,-10.122,-1.733,-8.053
73715,10.181,-0.41,0.795,-10.511,-1.55,-5.511
73765,10.186,-0.407,0.848,-10.916,-1.824,-2.489
73816,10.246,-0.369,0.817,-10.977,-1.794,0.45
73866,10.191,-0.376,0.719,-10.435,-1.74,3.305
73915,10.217,-0.46,0.733,-9.794,-1.718,5.992
73965,10.272,-0.582,0.656,-8.756,-1.305,8.244
74015,10.227,-0.726,0.604,-7.595,-0.733,10.038
74065,10.157,-0.845,0.589,-6.221,-0.153,11.313
74116,10.152,-0.996,0.623,-4.641,0.756,11.977
74166,10.114,-1.068,0.649,-3.237,1.443,11.992
74215,10.112,-1.157,0.57,-1.718,2.275,12.115
74265,9.994,-1.255,0.575,-0.756,2.603,11.641
74315,10.117,-1.286,0.74,0.374,2.832,11.183
74365,10.042,-1.439,0.745,1.031,2.939,10.634
74416,9.98,-1.454,0.757,1.504,2.84,9.916
74466,9.978,-1.562,0.764,1.679,2.527,9.176
74516,10.035,-1.593,0.769,1.847,2.71,7.794
74566,9.961,-1.686,0.836,1.458,2.611,6.664
74616,9.958,-1.679,0.81,0.901,2.756,4.802
74667,9.973,-1.789,0.91,0.29,2.626,3.16
74717,9.908,-1.832,0.896,-0.71,2.481,0.924
74766,9.951,-1.866,0.879,-1.756,2.107,-1.038
74816,9.899,-1.863,0.826,-2.954,1.565,-3.832
74866,9.994,-1.82,0.965,-4.305,0.771,-6.176
74916,9.856,-1.756,0.817,-5.542,0.382,-8.351
74967,9.784,-1.688,0.901,-7.008,-0.168,-10.496
75017,9.796,-1.6,0.893,-8.13,-0.878,-11.718
75066,9.798,-1.454,0.893,-9.076,-0.947,-12.656
75116,9.906,-1.351,0.833,-9.87,-1.107,-13.237
75166,9.858,-1.224,0.776,-10.534,-1.16,-13.443
75216,9.884,-1.221,0.81,-10.664,-1.282,-13.366
75267,9.937,-1.013,0.833,-10.679,-1.145,-13.122
75317,9.908,-0.975,0.726,-10.45,-1.115,-12.557
75366,9.994,-0.953,0.719,-9.809,-0.947,-11.641
75416,10.018,-0.824,0.647,-9.214,-0.656,-10.366
75466,9.992,-0.766,0.639,-8.244,-0.298,-9.061
75516,10.052,-0.663,0.565,-7.221,0.298,-7.634
75567,9.999,-0.637,0.685,-6.046,0.855,-5.931
75617,10.018,-0.611,0.577,-5.153,1.45,-4.053
75666,10.09,-0.57,0.671,-4.076,1.969,-1.855
75716,10.121,-0.575,0.692,-3.405,2.229,0.267
75766,10.155,-0.539,0.74,-2.771,2.374,2.664
75816,10.184,-0.606,0.659,-2.237,2.58,4.779
75867,10.186,-0.695,0.733,-1.863,2.641,6.573
75916,10.172,-0.79,0.771,-1.74,2.656,8.366
75966,10.179,-0.85,0.764,-1.802,2.466,9.115
76016,10.176,-1.073,0.805,-1.763,2.557,9.794
76066,10.157,-1.157,0.781,-2.344,2.74,9.916
76116,10.069,-1.296,0.79,-2.603,2.878,9.29
76167,10.133,-1.32,0.774,-3.511,2.443,8.443
76216,10.141,-1.363,0.898,-4.084,2.389,7.511
76266,9.992,-1.439,0.889,-4.969,2.145,6.397
76316,9.98,-1.442,0.92,-6.16,1.725,5.374
76366,9.982,-1.384,1.02,-7.511,1.008,4.412
76417,10.071,-1.456,0.965,-8.557,0.42,3.786
76467,10.009,-1.516,0.994,-9.786,-0.244,2.878
76516,10.047,-1.492,0.881,-10.748,-0.802,2.092
76566,10.028,-1.53,0.884,-11.298,-0.847,1.16
76616,9.918,-1.514,0.831,-11.786,-1.153,0.374
76666,10.016,-1.562,0.802,-12.076,-1.244,-0.611
76717,9.942,-1.554,0.735,-11.748,-1.092,-1.756
76767,9.975,-1.53,0.728,-11.298,-1.191,-2.885
76816,9.903,-1.533,0.709,-10.29,-0.908,-4.076
76866,9.944,-1.526,0.699,-9.412,-0.794,-5.435
76916,9.913,-1.442,0.661,-8.145,-0.099,-6.473
76966,9.954,-1.372,0.625,-6.611,0.137,-7.16
77017,9.927,-1.372,0.604,-5.168,1.0,-7.519
77067,9.918,-1.269,0.666,-3.573,1.618,-7.779
77116,9.879,-1.198,0.666,-2.038,2.336,-7.489
77166,9.906,-1.159,0.683,-0.664,2.733,-7.107
77216,9.853,-1.111,0.575,0.534,3.206,-6.641
77266,9.896,-1.073,0.73,1.313,3.664,-6.328
77317,9.935,-1.061,0.704,1.817,3.504,-6.038
77367,9.92,-1.004,0.8,2.107,3.298,-5.481
77417,9.913,-1.035,0.824,1.794,3.137,-5.168
77467,9.903,-1.075,0.867,1.244,3.038,-4.947
77517,9.951,-1.004,0.86,0.664,2.878,-4.527
77568,10.03,-0.975,0.838,-0.115,2.534,-3.863
77618,10.071,-0.948,0.927,-1.267,2.458,-3.366
77667,10.133,-0.884,0.881,-2.496,1.824,-2.481
77717,10.145,-0.877,0.917,-3.733,1.473,-1.382
77767,10.107,-0.884,0.896,-5.061,1.076,-0.611
77817,10.141,-0.843,0.867,-6.366,0.496,0.573
77868,10.145,-0.975,0.924,-7.595,0.061,1.763
77918,10.155,-0.944,0.826,-8.794,-0.435,2.58
77967,10.196,-1.083,0.845,-9.58,-0.656,2.847
78017,10.126,-1.078,0.843,-10.344,-0.786,2.947
78067,10.148,-1.169,0.814,-10.87,-0.939,2.954
78117,10.085,-1.152,0.874,-11.198,-1.107,2.374
78168,10.15,-1.207,0.807,-11.359,-0.947,1.893
78218,10.1,-1.138,0.759,-11.344,-0.985,1.679
78267,10.119,-1.116,0.683,-11.221,-0.924,1.756
78317,10.117,-1.118,0.769,-10.695,-0.954,2.13
78367,10.085,-1.001,0.762,-10.29,-1.061,2.557
78417,10.188,-1.03,0.719,-9.191,-1.122,3.084
78468,10.097,-1.071,0.635,-8.313,-0.847,3.695
78518,10.095,-1.13,0.69,-7.244,-0.191,4.198
78567,10.069,-1.241,0.525,-5.954,0.237,4.542
78617,10.014,-1.221,0.671,-4.573,0.954,4.565
78667,9.978,-1.25,0.608,-3.336,1.527,4.649
78717,9.935,-1.351,0.642,-2.137,2.084,4.298
78768,9.923,-1.387,0.58,-0.962,2.244,3.779
78818,9.958,-1.478,0.692,-0.282,2.511,2.733
78868,9.894,-1.449,0.678,0.542,2.58,2.0
78918,9.894,-1.533,0.798,1.031,2.496,0.634
78968,9.851,-1.485,0.735,1.397,2.618,-0.298
79019,9.889,-1.528,0.798,1.466,2.718,-1.679
79069,9.867,-1.518,0.836,1.237,2.603,-2.679
79118,9.899,-1.557,0.8,0.847,2.58,-3.664
79168,9.901,-1.506,0.826,0.374,2.405,-4.908
79218,9.887,-1.502,0.836,-0.107,2.275,-5.939
79268,9.848,-1.463,0.833,-1.252,1.878,-6.924
79319,9.906,-1.444,0.927,-2.115,1.26,-8.061
79369,9.896,-1.411,0.886,-3.389,0.947,-8.817
79418,9.939,-1.415,0.896,-4.443,0.527,-9.481
79468,9.939,-1.365,0.848,-5.298,0.046,-10.344
79518,9.975,-1.169,0.944,-6.168,-0.069,-10.794
79613,9.982,-0.999,0.838,-7.115,-0.344,-10.611
79664,10.071,-0.972,0.884,-7.794,-0.45,-9.87
79714,10.093,-0.824,0.786,-7.878,-0.313,-8.962
79764,10.124,-0.781,0.829,-8.115,-0.58,-7.588
79814,10.09,-0.745,0.798,-7.985,-0.366,-5.924
79864,10.203,-0.57,0.817,-7.916,-0.229,-3.977
79915,10.131,-0.613,0.754,-7.504,-0.183,-2.107
79965,10.114,-0.673,0.709,-6.962,0.084,-0.351
80014,10.16,-0.666,0.754,-6.534,0.351,1.115
80064,10.265,-0.752,0.716,-6.13,1.038,2.679
80114,10.227,-0.74,0.707,-5.603,1.29,3.702
80164,10.265,-0.774,0.642,-5.336,1.511,4.969
80215,10.148,-0.81,0.783,-5.0,1.763,5.954
80265,10.167,-0.709,0.742,-4.977,1.664,7.206
80314,10.069,-0.869,0.788,-5.137,1.45,8.718
80364,10.088,-0.886,0.896,-5.168,0.939,10.031
80414,10.097,-1.001,0.81,-5.458,0.756,10.664
80464,10.018,-1.075,0.819,-5.641,0.618,11.504
80515,10.064,-1.176,0.79,-5.794,0.603,11.893
80565,10.023,-1.329,0.754,-5.649,0.725,11.863
80614,9.925,-1.403,0.635,-5.756,1.023,11.405
80664,9.997,-1.526,0.726,-5.855,1.015,10.405
80714,9.958,-1.679,0.742,-6.107,1.168,9.084
80764,9.944,-1.756,0.747,-6.053,0.939,7.168
80815,9.889,-1.854,0.769,-6.29,0.511,4.87
80865,9.908,-1.964,0.872,-6.214,0.031,2.336
80914,9.745,-1.973,0.754,-6.13,-0.321,-0.053
80964,9.803,-1.962,0.716,-5.672,-0.336,-2.748
81014,9.769,-1.892,0.668,-5.305,-0.336,-5.252
81064,9.793,-1.906,0.666,-4.679,0.099,-7.626
81115,9.788,-1.806,0.601,-3.786,0.237,-9.641
81164,9.834,-1.775,0.687,-2.618,0.427,-11.588
81214,9.872,-1.636,0.63,-1.634,1.084,-13.168
81264,9.832,-1.569,0.661,-0.435,1.412,-14.473
81314,9.875,-1.454,0.656,0.641,1.87,-15.328
81364,9.954,-1.387,0.675,1.382,2.206,-16.183
81415,9.994,-1.212,0.769,1.916,2.519,-16.122
81464,9.966,-1.078,0.73,2.214,2.595,-16.221
81514,9.997,-0.963,0.807,2.481,2.855,-15.527
81564,10.03,-0.829,0.788,2.29,2.481,-14.557
81614,10.069,-0.656,0.867,2.008,2.26,-12.985
81665,10.112,-0.534,0.776,1.42,2.031,-11.16
81715,10.186,-0.472,0.867,0.763,1.573,-8.687
81764,10.203,-0.357,0.903,0.031,1.107,-6.26
81814,10.133,-0.359,0.889,-0.519,0.687,-3.084
81864,10.263,-0.333,0.778,-1.351,0.504,-0.198
81914,10.179,-0.383,0.843,-1.962,0.641,2.641
81965,10.155,-0.422,0.644,-2.359,0.878,5.427
82015,10.291,-0.498,0.776,-3.008,1.023,7.855
82064,10.164,-0.627,0.857,-3.695,1.275,9.947
82114,10.129,-0.709,0.831,-4.412,1.412,11.282
82164,10.114,-0.817,0.893,-5.366,1.053,12.229
82214,10.114,-0.886,0.92,-6.237,0.473,13.412
82265,10.085,-1.027,0.922,-7.298,-0.298,13.901
82315,10.009,-1.109,0.953,-8.038,-1.053,14.023
82364,10.133,-1.267,0.855,-8.908,-1.74,13.878
82414,10.018,-1.377,0.812,-9.206,-1.969,13.374
82464,9.982,-1.439,0.833,-9.336,-2.046,12.649
82514,10.002,-1.545,0.776,-9.206,-1.802,11.443
82565,9.872,-1.66,0.659,-8.382,-1.427,9.939
82615,9.949,-1.777,0.675,-7.458,-1.176,8.198
82665,9.891,-1.878,0.668,-6.221,-0.794,6.427
82715,9.867,-1.933,0.671,-5.008,-0.458,4.137
82765,9.872,-1.926,0.668,-3.756,-0.336,1.695
82816,9.839,-1.933,0.553,-2.321,-0.053,-1.084
82866,9.803,-2.086,0.649,-0.542,0.45,-3.87
82915,9.738,-2.012,0.604,0.756,0.733,-6.832
82965,9.796,-1.861,0.68,2.366,1.298,-9.26
83015,9.844,-1.703,0.596,3.618,1.618,-11.542
83065,9.798,-1.712,0.635,4.656,1.969,-13.359
83116,9.815,-1.547,0.726,5.733,1.908,-14.618
83166,9.879,-1.427,0.611,6.519,2.107,-15.496
83215,9.791,-1.332,0.79,6.756,2.031,-16.084
83265,9.808,-1.193,0.69,7.115,1.977,-16.16
83315,9.93,-1.063,0.668,7.145,1.931,-15.634
83365,9.915,-1.008,0.774,7.061,1.863,-14.977
83416,10.028,-0.841,0.793,6.679,2.053,-13.939
83466,9.942,-0.762,0.855,6.221,2.115,-12.756
83515,10.042,-0.642,0.802,5.351,1.779,-11.305
83565,10.088,-0.56,0.877,4.565,1.588,-9.534
83615,10.148,-0.508,0.92,3.542,1.053,-7.542
83665,10.141,-0.417,0.934,2.305,0.389,-5.282
83716,10.186,-0.376,1.004,1.137,-0.473,-2.756
83766,10.208,-0.438,0.857,0.145,-1.198,-0.046
83815,10.203,-0.508,0.917,-0.679,-1.489,2.634
83865,10.2,-0.56,0.798,-1.137,-1.679,5.046
83915,10.184,-0.651,0.831,-1.443,-1.489,7.405
83965,10.155,-0.754,0.716,-1.389,-1.084,8.977
84016,10.172,-0.793,0.74,-1.26,-0.504,10.382
84066,10.088,-0.982,0.685,-0.885,0.046,11.282
84116,10.061,-1.066,0.687,-0.534,0.557,11.427
84166,10.054,-1.181,0.716,-0.038,0.702,11.382
84216,10.042,-1.281,0.716,-0.206,0.763,10.809
84267,10.018,-1.346,0.774,-0.069,0.58,10.275
84317,10.006,-1.384,0.75,-0.122,0.206,9.58
84366,10.038,-1.42,0.819,-0.229,-0.046,8.603
84416,10.026,-1.483,0.721,-0.397,-0.443,7.695
84466,9.994,-1.518,0.747,0.038,-0.504,6.557
84516,10.028,-1.492,0.75,0.366,-0.267,5.595
84567,9.987,-1.59,0.692,0.55,-0.015,4.435
84617,9.958,-1.657,0.742,0.885,0.313,3.328
84666,9.913,-1.619,0.738,1.214,0.626,1.855
84716,9.884,-1.686,0.766,1.534,0.718,0.405
84766,9.915,-1.732,0.812,1.656,0.656,-1.176
84816,9.891,-1.693,0.845,1.725,0.786,-2.779
84867,9.877,-1.717,0.831,1.725,0.557,-4.351
84917,9.947,-1.645,0.687,1.794,0.405,-6.191
84966,9.932,-1.569,0.778,1.679,0.427,-7.626
85016,9.911,-1.506,0.728,1.435,0.344,-8.748
85066,9.863,-1.411,0.798,1.137,0.435,-9.473
85116,9.906,-1.38,0.786,1.168,0.221,-9.824
85167,9.911,-1.32,0.891,0.725,0.038,-10.183
85217,9.954,-1.308,0.826,0.603,-0.053,-10.229
85266,9.851,-1.245,0.807,0.153,-0.427,-10.55
85316,9.968,-1.231,0.793,-0.023,-0.527,-10.443
85366,9.944,-1.152,0.711,0.107,-0.718,-10.023
85416,9.99,-1.004,0.695,0.344,-0.802,-9.702
85467,10.004,-0.965,0.639,0.618,-0.328,-9.099
85516,10.076,-0.934,0.692,0.832,-0.061,-8.55
85566,10.071,-0.893,0.728,1.191,0.244,-7.511
85616,10.124,-0.841,0.661,1.504,0.489,-6.565
85666,10.208,-0.766,0.754,1.565,0.481,-5.351
85716,10.143,-0.719,0.692,1.908,0.405,-3.779
85767,10.186,-0.733,0.8,2.107,0.366,-2.557
85816,10.155,-0.778,0.73,2.092,0.198,-0.901
85866,10.152,-0.754,0.807,2.473,0.275,0.771
85916,10.133,-0.721,0.651,2.679,0.275,2.336
85966,10.174,-0.781,0.8,3.008,0.603,3.557
86017,10.198,-0.922,0.709,3.221,0.924,4.511
86067,10.172,-0.874,0.742,3.26,1.359,5.435
86116,10.217,-0.956,0.632,3.344,1.649,5.855
86166,10.141,-0.953,0.853,3.511,1.374,6.046
86216,10.097,-1.037,0.795,3.435,1.504,6.275
86266,10.09,-1.066,0.764,3.099,1.237,6.496
86317,10.114,-1.059,0.841,2.809,0.962,6.687
86367,10.061,-1.054,0.833,2.244,0.626,7.183
86416,10.004,-1.154,0.771,2.046,0.618,7.733
86466,10.069,-1.159,0.845,1.634,0.527,7.672
86516,10.066,-1.233,0.817,1.359,0.618,8.008
86566,9.93,-1.26,0.826,0.969,0.847,7.985
86617,9.954,-1.348,0.742,0.511,0.847,7.542
86667,9.949,-1.415,0.8,0.382,0.695,6.985
86716,9.932,-1.49,0.841,0.16,0.42,6.29
86766,9.913,-1.609,0.884,-0.397,0.435,5.321
86816,9.899,-1.705,0.829,-0.557,0.145,3.733
86866,9.915,-1.691,0.771,-0.87,0.023,2.0
86917,9.851,-1.765,0.745,-1.29,-0.107,0.191
86967,9.757,-1.756,0.824,-1.55,0.023,-1.748
87017,9.8,-1.76,0.757,-1.672,-0.015,-3.641
87067,9.879,-1.746,0.805,-2.084,0.153,-5.336
87117,9.798,-1.72,0.752,-2.496,0.153,-6.931
87168,9.923,-1.669,0.79,-2.473,-0.015,-8.458
87218,9.87,-1.72,0.824,-2.947,-0.504,-10.0
87267,9.906,-1.583,0.745,-3.389,-0.824,-11.489
87317,9.865,-1.547,0.843,-3.412,-1.008,-12.847
87367,9.884,-1.444,0.817,-3.328,-1.42,-14.023
87417,9.994,-1.3,0.735,-3.069,-1.511,-14.748
87468,10.052,-1.262,0.73,-2.679,-0.947,-15.084
87518,10.061,-1.116,0.659,-2.099,-0.718,-14.954
87567,10.083,-0.953,0.671,-1.702,-0.214,-14.534
87617,10.081,-0.829,0.661,-1.198,0.382,-13.656
87667,10.145,-0.771,0.678,-0.573,0.763,-12.374
87717,10.136,-0.668,0.812,-0.321,0.908,-10.725
87768,10.152,-0.553,0.692,-0.092,0.656,-8.634
87818,10.126,-0.529,0.781,0.191,0.527,-6.427
87867,10.215,-0.457,0.719,0.427,0.443,-4.092
87917,10.232,-0.386,0.786,0.748,0.023,-1.435
87967,10.224,-0.426,0.781,0.893,0.076,1.107
88017,10.239,-0.477,0.697,1.321,0.397,3.542
88068,10.186,-0.472,0.721,1.489,0.527,5.832
88118,10.097,-0.527,0.649,2.076,1.076,7.87
88167,10.176,-0.596,0.649,2.733,1.473,9.618
88217,10.124,-0.709,0.671,3.534,1.725,11.267
88267,10.148,-0.745,0.738,3.725,2.145,12.534
88317,10.05,-0.855,0.697,4.252,2.351,13.656
88368,9.997,-0.941,0.786,4.527,2.74,14.725
88418,10.002,-1.078,0.805,4.504,2.84,15.405
88468,9.97,-1.2,0.747,4.626,3.023,15.779
88518,9.887,-1.315,0.836,4.168,3.107,15.832
88568,9.99,-1.475,0.86,3.443,2.855,15.328
88619,9.87,-1.588,0.867,2.733,2.618,14.137
88669,9.87,-1.791,0.941,1.595,2.344,12.771
88718,9.939,-1.892,0.956,0.321,1.763,10.771
88768,9.856,-2.029,1.013,-0.74,1.267,8.145
88818,9.853,-2.074,0.963,-2.405,0.595,4.863
88868,9.82,-2.132,1.051,-3.466,0.023,1.481
88919,9.839,-2.132,0.96,-4.786,-0.359,-1.969
88969,9.808,-2.223,0.927,-5.725,-0.458,-5.435
89018,9.741,-2.129,0.865,-6.74,-0.45,-8.634
89068,9.793,-2.069,0.814,-7.504,-0.511,-11.702
89118,9.769,-1.969,0.872,-8.328,-0.397,-14.435
89168,9.805,-1.866,0.908,-9.26,-0.641,-16.618
89219,9.863,-1.76,0.855,-9.763,-0.985,-18.695
89269,9.856,-1.636,0.81,-10.221,-1.206,-20.267
89318,9.93,-1.363,0.824,-10.573,-1.588,-21.084
89368,9.925,-1.229,0.829,-10.748,-1.863,-21.634
89418,9.992,-0.996,0.723,-10.687,-1.763,-21.344
89468,10.026,-0.886,0.704,-10.076,-1.55,-20.725
89519,10.05,-0.728,0.714,-9.519,-1.038,-19.374
89569,10.119,-0.553,0.702,-8.962,-0.55,-17.496
89618,10.138,-0.469,0.661,-8.122,-0.13,-15.176
89668,10.148,-0.259,0.738,-7.382,0.435,-12.046
89718,10.117,-0.216,0.656,-6.672,0.725,-8.641
89768,10.215,-0.129,0.675,-5.611,1.145,-5.046
89819,10.208,-0.077,0.75,-4.901,1.29,-1.344
89868,10.217,-0.122,0.673,-4.221,1.733,2.191
89918,10.208,-0.156,0.699,-3.527,1.84,5.664
89968,10.255,-0.287,0.719,-2.916,1.832,8.985
90018,10.131,-0.352,0.747,-2.328,2.427,11.847
90068,10.157,-0.491,0.699,-1.931,2.779,14.237
90119,10.138,-0.659,0.719,-1.733,2.863,16.168
90168,10.038,-0.762,0.771,-1.626,2.947,17.489
90218,9.992,-0.927,0.79,-1.702,2.817,18.389
90268,10.014,-1.109,0.721,-1.794,2.672,18.618
90318,10.004,-1.25,0.793,-1.977,2.504,18.534
90369,9.958,-1.336,0.754,-2.275,2.29,18.168
90419,9.949,-1.435,0.795,-2.641,2.053,17.405
90468,9.956,-1.65,0.8,-2.985,2.244,16.13
90518,9.966,-1.753,0.747,-3.397,1.985,14.466
90568,9.937,-1.899,0.817,-3.733,2.069,12.206
90618,9.908,-2.038,0.766,-4.229,1.817,9.71
90669,9.899,-2.189,0.821,-4.855,1.893,6.817
90719,9.867,-2.196,0.838,-5.382,1.374,3.534
90768,9.786,-2.158,0.85,-5.855,1.229,0.13
90818,9.935,-2.287,0.833,-6.366,0.74,-3.344
90868,9.774,-2.203,0.769,-6.855,0.374,-7.008
90918,9.788,-2.038,0.85,-7.298,0.183,-10.275
90969,9.82,-1.947,0.783,-7.565,-0.061,-13.008
91019,9.827,-1.854,0.738,-7.687,0.206,-15.542
91068,9.875,-1.729,0.742,-8.023,0.603,-17.527
91118,9.908,-1.588,0.663,-8.183,0.733,-18.992
91168,9.856,-1.427,0.814,-8.351,0.901,-19.71
91218,9.901,-1.329,0.824,-8.405,0.794,-20.153
91269,9.913,-1.099,0.824,-8.863,0.58,-20.221
91319,10.014,-0.977,0.886,-9.137,0.511,-19.939
91369,9.992,-0.826,0.819,-9.382,0.252,-19.046
91419,10.059,-0.697,0.814,-10.053,0.092,-17.458
91469,10.047,-0.534,0.728,-10.053,0.145,-15.611
91520,10.09,-0.412,0.764,-10.153,0.107,-13.092
91570,10.121,-0.275,0.838,-10.374,0.405,-10.237
91619,10.073,-0.237,0.81,-10.534,0.382,-7.13
91669,10.083,-0.235,0.783,-10.611,0.458,-3.954
91719,10.148,-0.24,0.666,-10.229,0.519,-0.664
91769,10.138,-0.235,0.709,-10.252,0.649,2.282
91820,10.145,-0.342,0.683,-10.206,0.802,5.328
91870,10.186,-0.417,0.63,-9.809,0.847,8.069
91919,10.203,-0.529,0.692,-9.74,0.901,10.244
91969,10.167,-0.656,0.733,-9.489,1.168,12.122
92019,10.066,-0.771,0.69,-9.336,1.389,13.649
92069,10.105,-0.953,0.702,-8.931,1.374,14.809
92120,10.102,-1.049,0.795,-8.733,1.427,15.0
92170,10.09,-1.226,0.728,-8.573,0.962,14.695
92219,10.004,-1.315,0.68,-8.176,0.916,13.947
92269,10.038,-1.449,0.769,-7.863,0.71,13.069
92319,10.047,-1.511,0.661,-7.344,0.84,11.74
92369,10.011,-1.466,0.695,-6.695,0.802,10.511
92420,10.026,-1.609,0.654,-6.046,1.13,9.229
92470,10.045,-1.602,0.671,-5.137,1.626,8.023
92519,10.064,-1.686,0.685,-4.534,2.092,6.573
92569,10.023,-1.655,0.711,-3.885,2.427,5.053
92619,9.925,-1.734,0.733,-3.229,2.809,3.305
92669,9.932,-1.818,0.742,-3.092,2.901,1.542
92720,9.939,-1.782,0.819,-3.198,2.916,-0.298
92770,9.863,-1.794,0.812,-3.435,2.427,-2.29
92820,9.923,-1.712,0.826,-3.947,2.107,-4.305
92870,9.899,-1.72,0.879,-4.267,1.641,-6.046
92920,9.867,-1.677,0.843,-5.099,1.107,-7.786
92971,9.865,-1.672,0.841,-5.542,0.954,-9.275
93021,9.779,-1.509,0.8,-6.122,0.771,-10.45
93070,9.863,-1.42,0.661,-6.603,0.885,-11.282
93120,9.908,-1.365,0.798,-6.977,0.74,-11.885
93170,9.872,-1.293,0.798,-7.344,0.878,-12.153
93220,9.925,-1.212,0.678,-7.595,0.885,-12.252
93271,9.923,-1.207,0.802,-7.908,0.931,-12.458
93321,9.911,-1.162,0.805,-8.244,0.893,-12.519
93370,9.93,-1.063,0.903,-8.565,0.908,-12.282
93420,9.942,-0.989,0.793,-8.985,0.573,-11.824
93470,9.958,-0.934,0.886,-9.107,0.527,-11.069
93520,9.99,-0.798,0.685,-9.252,0.275,-10.031
93571,9.97,-0.75,0.781,-9.313,0.191,-8.427
93621,10.097,-0.73,0.788,-9.359,0.313,-6.786
93670,10.04,-0.618,0.798,-9.252,0.29,-5.031
93720,10.129,-0.651,0.75,-9.084,0.527,-3.137
93770,10.145,-0.627,0.759,-8.847,0.656,-1.412
93820,10.215,-0.654,0.733,-8.427,0.939,0.534
93871,10.148,-0.668,0.754,-8.008,1.382,2.206
93921,10.176,-0.673,0.709,-7.863,1.679,3.71
93970,10.117,-0.812,0.716,-7.496,1.603,4.977
94020,10.109,-0.889,0.776,-7.389,1.901,6.145
94070,10.071,-0.889,0.745,-7.053,1.962,7.038
94120,10.184,-0.929,0.759,-7.221,1.87,7.595
94171,10.078,-1.011,0.817,-7.282,1.656,7.992
94220,10.181,-1.035,0.833,-7.496,1.534,8.183
94270,10.169,-1.092,0.69,-7.405,1.298,8.221
94320,10.191,-1.118,0.776,-7.985,1.336,8.374
94370,10.136,-1.111,0.762,-8.076,1.076,8.473
94420,10.073,-1.13,0.793,-8.618,0.924,8.656
94471,10.066,-1.198,0.759,-8.855,0.954,9.099
94520,10.018,-1.269,0.79,-9.282,0.87,8.916
94570,10.006,-1.322,0.762,-9.542,0.71,8.939
94620,10.021,-1.425,0.762,-9.496,0.344,8.443
94670,9.908,-1.502,0.817,-9.725,0.275,7.924
94721,9.927,-1.648,0.793,-9.794,0.214,6.824
94771,9.899,-1.636,0.774,-9.664,0.168,5.748
94820,9.93,-1.696,0.692,-9.122,-0.031,4.038
94870,9.879,-1.775,0.654,-8.847,-0.046,2.282
94920,9.856,-1.789,0.683,-8.115,0.099,0.137
94970,9.87,-1.849,0.651,-6.985,0.168,-2.084
95021,9.822,-1.909,0.68,-5.992,0.611,-4.267
95071,9.865,-1.811,0.606,-4.901,0.924,-6.351
95120,9.781,-1.799,0.716,-3.489,1.542,-8.168
95170,9.824,-1.741,0.57,-2.237,1.901,-10.29
95220,9.779,-1.748,0.649,-1.084,2.366,-11.74
95270,9.796,-1.66,0.613,-0.015,2.565,-13.183
95321,9.858,-1.571,0.711,0.916,2.931,-15.0
95371,9.827,-1.48,0.678,1.634,2.962,-16.298
95420,9.913,-1.38,0.709,2.031,2.878,-16.763
95470,9.932,-1.231,0.709,2.008,2.962,-17.336
95520,10.004,-1.054,0.81,1.863,2.824,-17.183
95570,10.054,-0.877,0.702,1.626,2.618,-16.458
95621,10.093,-0.752,0.841,1.099,2.443,-15.534
95671,10.035,-0.606,0.774,0.351,2.351,-13.824
95721,10.152,-0.517,0.862,-0.595,2.099,-11.58
95771,10.133,-0.445,0.927,-1.802,1.809,-8.878
95821,10.157,-0.381,0.824,-2.863,1.397,-6.084
95872,10.179,-0.335,0.929,-4.237,1.0,-3.084
95922,10.222,-0.268,0.948,-5.298,0.519,-0.076
95971,10.234,-0.295,0.877,-6.542,0.0,2.863
96021,10.174,-0.369,0.805,-7.809,-0.221,5.45
96071,10.179,-0.422,0.898,-8.832,-0.595,8.145
96121,10.155,-0.508,0.855,-9.55,-0.779,10.321
96172,10.212,-0.582,0.783,-10.397,-0.756,12.137
96222,10.172,-0.69,0.833,-10.908,-0.969,13.649
96271,10.129,-0.795,0.793,-11.527,-1.351,14.733
96321,10.155,-0.901,0.723,-11.611,-1.267,15.817
96371,10.088,-0.936,0.764,-12.046,-1.557,16.504
96421,10.093,-1.109,0.75,-11.763,-1.809,16.695
96472,10.107,-1.229,0.707,-11.275,-1.939,16.969
96522,10.057,-1.401,0.654,-10.664,-2.198,16.595
96571,10.011,-1.554,0.625,-9.908,-1.847,16.0
96621,9.923,-1.712,0.52,-8.229,-1.626,14.588
96671,9.834,-1.801,0.58,-6.947,-1.122,12.893
96721,9.947,-1.94,0.489,-5.153,-0.695,11.008
96772,9.882,-2.055,0.563,-2.809,-0.076,8.405
96822,9.829,-2.189,0.491,-0.885,0.58,5.58
96871,9.803,-2.235,0.501,1.206,1.168,2.084
96921,9.836,-2.29,0.51,3.298,1.786,-1.634
96971,9.824,-2.299,0.553,5.321,2.374,-5.489
97021,9.753,-2.302,0.62,7.053,2.939,-9.267
97072,9.839,-2.206,0.589,7.992,3.221,-12.74
97122,9.709,-2.081,0.757,8.832,3.336,-16.008
97172,9.772,-1.954,0.783,9.282,3.351,-18.519
97222,9.753,-1.799,0.75,9.183,2.87,-20.702
97272,9.796,-1.677,0.857,8.626,2.473,-22.366
97323,9.817,-1.456,0.903,7.634,2.0,-23.527
97373,9.836,-1.324,0.91,6.603,1.321,-24.168
97422,9.906,-1.004,0.915,5.458,0.786,-24.046
97472,9.966,-0.889,0.927,4.397,0.13,-22.985
97522,10.033,-0.656,0.915,3.153,-0.282,-21.695
97572,10.088,-0.474,0.874,1.931,-0.527,-19.733
97623,10.083,-0.283,0.826,0.824,-1.046,-16.863
97673,10.167,-0.192,0.795,-0.015,-1.221,-13.618
97722,10.205,-0.024,0.829,-0.718,-1.473,-9.802
97772,10.124,0.079,0.733,-1.412,-1.58,-5.45
97822,10.222,0.062,0.824,-1.802,-1.443,-1.405
97872,10.229,0.057,0.723,-1.817,-1.679,3.214
97923,10.208,-0.053,0.769,-1.687,-1.527,7.435
97973,10.208,-0.129,0.687,-1.321,-1.0,11.244
98022,10.232,-0.302,0.651,-0.824,-0.885,14.58
98072,10.198,-0.419,0.714,-0.16,-0.405,17.26
98122,10.179,-0.575,0.613,0.641,0.0,19.344
98172,10.143,-0.79,0.685,1.595,0.725,20.336
98223,10.121,-0.968,0.742,2.374,1.328,21.008
98273,10.143,-1.138,0.745,2.916,1.748,21.229
98322,10.038,-1.315,0.695,3.534,1.962,20.885
98372,10.002,-1.487,0.814,3.504,2.092,20.153
98422,9.949,-1.59,0.774,3.55,2.115,19.031
98472,9.98,-1.765,0.786,3.397,1.924,17.45
98523,9.915,-1.863,0.819,2.924,1.802,15.55
98572,10.009,-1.94,0.824,2.366,1.634,13.198
98622,9.944,-2.112,0.898,1.817,1.282,10.29
98672,9.853,-2.165,0.927,1.0,0.626,7.183
98722,9.887,-2.259,0.848,0.145,0.763,3.947
98772,9.903,-2.268,0.91,-0.832,0.237,0.275
98823,9.815,-2.282,0.845,-1.573,-0.046,-3.71
98872,9.817,-2.326,0.881,-2.382,-0.298,-7.611
98922,9.769,-2.357,0.877,-3.031,-0.504,-11.473
98972,9.8,-2.172,0.905,-3.527,-0.725,-14.947
99022,9.772,-2.019,0.884,-4.153,-0.817,-18.122
99073,9.788,-1.849,0.941,-4.603,-1.313,-20.756
99123,9.827,-1.655,0.795,-5.122,-1.198,-22.45
99172,9.808,-1.463,0.728,-4.786,-1.55,-23.252
99222,9.894,-1.279,0.762,-4.924,-1.55,-23.58
99272,9.882,-1.13,0.697,-4.412,-1.45,-23.267
99322,9.949,-0.889,0.666,-4.145,-1.504,-22.786
99373,9.994,-0.762,0.778,-3.435,-1.275,-21.84
99423,9.987,-0.606,0.647,-2.504,-0.603,-19.931
99472,9.987,-0.433,0.58,-1.496,-0.252,-17.962
99522,10.018,-0.297,0.69,-0.458,0.336,-15.351
99572,10.078,-0.12,0.589,0.885,0.687,-12.198
99622,10.093,-0.086,0.673,1.641,1.321,-8.473
99673,10.176,-0.055,0.649,2.847,1.939,-4.405
99723,10.172,-0.005,0.695,3.542,2.275,-0.305
99772,10.217,-0.038,0.75,4.183,2.695,3.695
99822,10.299,-0.156,0.79,4.534,2.969,7.42
99872,10.198,-0.266,0.723,4.71,3.046,11.046
99922,10.263,-0.366,0.793,4.45,3.214,13.71
99973,10.181,-0.529,0.776,4.412,3.015,16.183
100023,10.215,-0.774,0.819,3.634,2.832,17.847
100073,10.121,-0.932,0.786,3.115,2.573,18.641
100123,10.157,-1.09,0.855,2.366,2.313,18.74
100173,10.097,-1.269,0.946,1.328,2.198,18.389
100224,10.105,-1.392,0.86,0.298,2.092,17.504
100274,10.052,-1.564,0.86,-0.924,1.763,15.992
100323,10.052,-1.605,0.913,-2.076,1.435,14.458
100373,9.978,-1.717,0.879,-3.321,0.878,12.763
100423,10.009,-1.775,0.922,-4.725,0.198,10.74
100473,9.942,-1.837,0.891,-5.855,-0.29,9.023
100524,9.994,-1.844,0.891,-6.87,-0.924,6.893
100574,9.872,-1.897,0.879,-7.595,-1.244,4.969
100623,9.958,-1.933,0.709,-8.145,-1.672,2.756
100673,9.93,-1.938,0.673,-8.237,-1.84,0.656
100723,9.978,-1.926,0.714,-7.84,-1.565,-1.969
100773,9.939,-1.973,0.695,-7.328,-1.252,-4.427
100824,9.86,-2.019,0.63,-6.359,-0.992,-6.847
100874,9.879,-1.926,0.651,-5.244,-0.427,-9.382
100923,9.851,-1.885,0.568,-4.107,0.0,-11.74
100973,9.803,-1.801,0.606,-2.794,0.351,-13.847
101023,9.803,-1.624,0.596,-1.687,0.74,-15.374
101073,9.863,-1.483,0.692,-0.542,1.191,-16.511
101124,9.999,-1.339,0.692,0.374,1.237,-17.038
101174,9.913,-1.243,0.639,1.489,1.473,-16.916
101223,10.023,-1.099,0.692,2.076,1.702,-16.664
101273,9.92,-0.953,0.709,2.45,1.771,-16.031
101323,10.045,-0.92,0.783,2.473,1.847,-14.992
101373,10.033,-0.836,0.766,2.641,1.87,-14.137
101424,10.054,-0.754,0.838,2.412,1.824,-13.046
101474,10.052,-0.627,0.821,2.076,1.756,-11.504
101524,10.076,-0.565,0.821,1.336,1.031,-9.87
101574,10.117,-0.441,0.915,0.763,0.786,-7.603
101624,10.05,-0.417,0.728,0.137,0.565,-5.046
101675,10.04,-0.364,0.8,-0.489,0.115,-2.038
101725,10.054,-0.398,0.774,-0.992,0.229,0.954
101774,10.16,-0.41,0.814,-1.718,0.42,3.931
101824,10.095,-0.522,0.829,-2.206,0.42,6.366
101874,10.117,-0.613,0.728,-2.756,0.679,8.351
101924,10.167,-0.75,0.85,-3.084,0.382,10.0
101975,10.093,-0.829,0.793,-3.435,0.206,11.061
102025,10.188,-0.965,0.786,-3.794,-0.107,11.573
102074,10.105,-1.08,0.869,-4.092,-0.641,11.656
102124,10.105,-1.128,0.733,-4.13,-0.763,11.595
102174,10.141,-1.26,0.707,-3.809,-1.031,10.863
102224,10.152,-1.358,0.675,-3.244,-1.076,10.26
102275,9.999,-1.36,0.616,-2.679,-0.733,9.634
102325,10.047,-1.415,0.625,-1.763,-0.221,8.939
102374,10.064,-1.411,0.601,-0.588,0.397,8.229
102424,9.99,-1.406,0.606,0.344,1.0,7.626
102474,9.978,-1.466,0.635,1.382,1.534,6.916
102524,10.023,-1.521,0.661,2.527,1.916,6.076
102575,10.026,-1.595,0.663,3.198,2.267,4.977
102625,9.968,-1.629,0.639,3.763,2.489,4.099
102674,9.918,-1.614,0.798,3.992,2.565,2.718
102724,9.942,-1.717,0.831,4.137,2.557,1.275
102774,9.937,-1.77,0.8,3.489,2.298,-0.13
102824,9.949,-1.777,0.843,2.656,2.206,-1.878
102875,9.925,-1.76,0.824,1.824,1.855,-3.672
102924,9.968,-1.741,0.987,0.893,1.221,-5.458
102974,9.911,-1.655,0.963,-0.435,0.58,-7.336
103024,9.944,-1.638,0.891,-1.573,0.252,-9.038
103074,9.935,-1.564,0.889,-2.855,-0.237,-10.458
103124,9.894,-1.471,0.939,-4.023,-0.504,-11.725
103175,9.903,-1.451,0.826,-5.137,-0.641,-12.473
103224,9.944,-1.377,0.79,-6.076,-0.718,-12.893
103274,9.901,-1.274,0.927,-7.038,-0.672,-13.206
103324,9.915,-1.229,0.903,-7.939,-0.695,-13.336
103374,9.994,-1.092,0.905,-8.824,-1.252,-13.557
103425,9.856,-1.049,0.908,-9.718,-1.656,-13.466
103475,9.899,-0.915,0.821,-10.137,-1.969,-13.183
103524,9.994,-0.85,0.781,-10.328,-2.504,-12.45
103574,10.023,-0.711,0.812,-10.405,-2.672,-11.244
103624,10.04,-0.572,0.714,-9.618,-2.626,-9.366
103674,10.059,-0.532,0.683,-8.809,-2.252,-7.344
103725,10.145,-0.436,0.572,-7.611,-1.557,-4.519
103775,10.09,-0.378,0.556,-6.252,-0.863,-2.183
103824,10.05,-0.517,0.491,-4.427,0.26,0.527
103874,10.179,-0.572,0.601,-2.55,1.13,2.908
103924,10.083,-0.601,0.553,-0.87,2.053,4.58
103974,10.119,-0.699,0.625,0.534,2.748,6.191
104025,10.143,-0.776,0.721,1.977,2.863,7.275
104075,10.078,-0.843,0.738,2.901,3.298,8.252
104124,10.15,-0.86,0.649,3.802,3.45,9.099
104174,10.114,-0.927,0.707,4.305,3.534,9.763
104224,10.184,-0.903,0.687,4.435,3.725,10.313
104274,10.145,-0.977,0.812,4.405,3.664,10.931
104325,10.117,-1.08,0.893,4.115,3.481,11.664
104375,10.133,-1.116,0.886,3.527,3.603,12.13
104425,10.076,-1.116,0.932,2.885,3.672,12.656
104475,10.081,-1.284,0.905,1.802,3.244,12.481
104525,10.026,-1.403,0.889,0.817,2.847,12.115
104576,10.026,-1.516,0.987,-0.542,2.496,11.397
104626,10.028,-1.614,0.946,-2.031,2.061,10.252
104675,9.966,-1.717,0.992,-3.634,1.626,8.71
104725,9.958,-1.875,0.932,-5.237,1.191,6.687
104775,9.92,-1.923,0.984,-6.916,0.626,4.511
104825,9.824,-1.959,1.071,-8.359,-0.13,1.992
104876,9.867,-2.012,1.049,-9.885,-0.634,-0.649
104926,9.81,-1.988,0.941,-10.901,-1.26,-3.74
104975,9.903,-2.002,0.915,-11.809,-1.55,-6.718
105025,9.856,-2.021,0.776,-12.534,-1.863,-9.695
105075,9.812,-1.962,0.824,-12.763,-1.962,-12.42
105125,9.858,-1.803,0.764,-12.74,-1.779,-14.87
105176,9.867,-1.674,0.654,-12.084,-1.42,-16.496
105226,9.812,-1.633,0.733,-11.389,-0.863,-17.893
105275,9.781,-1.487,0.63,-10.489,-0.443,-18.756
105325,9.829,-1.322,0.745,-9.458,0.13,-19.405
105375,9.891,-1.195,0.63,-8.58,0.527,-19.809
105425,9.903,-1.023,0.613,-7.466,0.71,-19.634
105476,9.935,-0.857,0.671,-6.634,0.962,-18.924
105526,9.985,-0.644,0.675,-5.45,1.183,-17.435
105575,10.057,-0.448,0.635,-4.656,1.305,-15.489
105625,10.112,-0.362,0.596,-3.863,1.405,-12.947
105675,10.16,-0.292,0.73,-3.076,1.969,-9.664
105725,10.2,-0.163,0.719,-2.29,2.29,-5.969
105776,10.229,-0.156,0.752,-1.992,2.893,-2.0
105826,10.208,-0.141,0.778,-1.443,3.267,1.595
105876,10.224,-0.218,0.702,-1.405,3.634,4.962
105926,10.243,-0.326,0.778,-1.557,3.771,7.863
105976,10.222,-0.505,0.829,-2.176,3.534,10.237
106027,10.167,-0.584,0.819,-2.725,3.504,12.038
106077,10.21,-0.616,0.857,-3.893,2.771,13.542
106126,10.174,-0.798,0.946,-4.802,2.412,14.603
106176,10.167,-0.867,0.948,-6.061,1.359,15.298
106226,10.093,-0.965,0.984,-7.481,0.908,16.145
106276,10.057,-1.071,0.901,-8.595,0.351,16.649
106327,10.069,-1.162,0.85,-9.458,-0.336,16.71
106377,10.047,-1.322,0.824,-10.16,-0.878,16.718
106479,10.023,-1.679,0.632,-10.435,-1.076,15.069
106529,10.052,-1.76,0.697,-10.008,-0.756,13.427
106579,9.903,-1.832,0.74,-9.153,-0.542,11.435
106630,9.911,-1.966,0.73,-8.069,-0.099,8.847
106679,9.889,-2.033,0.659,-6.962,0.389,6.115
106729,9.899,-2.1,0.611,-5.702,0.649,3.252
106779,9.844,-2.136,0.707,-4.374,1.229,0.023
106829,9.839,-2.134,0.663,-3.168,1.489,-2.939
106880,9.915,-2.132,0.635,-2.137,1.649,-5.939
106930,9.832,-2.134,0.651,-1.382,1.847,-9.267
106979,9.858,-2.074,0.733,-0.565,2.061,-12.26
107029,9.808,-1.993,0.802,-0.053,1.832,-15.053
107079,9.798,-1.859,0.726,0.168,1.985,-17.611
107129,9.839,-1.693,0.709,0.145,1.817,-19.603
107180,9.805,-1.468,0.752,0.046,1.626,-20.702
107230,9.815,-1.284,0.788,-0.137,1.542,-21.534
107279,9.856,-1.212,0.802,-0.542,1.58,-21.649
107329,9.839,-0.996,0.776,-0.954,1.42,-21.389
107379,9.901,-0.843,0.802,-2.053,1.366,-20.718
107429,9.93,-0.716,0.898,-2.626,1.328,-19.504
107480,9.987,-0.455,0.829,-3.397,1.038,-17.626
107530,10.028,-0.304,0.889,-4.397,0.71,-15.168
107579,10.011,-0.211,0.932,-5.656,0.305,-12.031
107629,10.083,-0.072,0.92,-6.756,-0.153,-8.511
107679,10.131,-0.115,0.881,-7.496,-0.817,-4.336
107729,10.119,-0.031,0.893,-8.42,-0.824,0.069
107780,10.15,-0.125,0.848,-9.107,-1.145,4.183
107830,10.145,-0.204,0.675,-9.519,-1.321,7.939
107879,10.184,-0.335,0.776,-9.336,-1.031,10.863
107929,10.2,-0.491,0.865,-9.244,-0.947,13.214
107979,10.232,-0.649,0.709,-8.817,-0.656,14.962
108029,10.205,-0.759,0.632,-8.466,-0.473,15.855
108080,10.136,-0.946,0.786,-7.42,-0.26,16.557
108130,10.191,-1.13,0.666,-6.511,0.099,16.511
108180,10.138,-1.241,0.62,-5.534,0.023,16.504
108230,9.999,-1.267,0.642,-4.351,0.496,16.115
108280,10.093,-1.392,0.663,-3.168,0.756,15.336
108331,10.119,-1.509,0.656,-2.191,1.084,14.405
108381,10.021,-1.612,0.666,-1.023,1.695,13.221
108430,9.951,-1.715,0.635,-0.038,1.863,11.641
108480,9.93,-1.82,0.742,0.924,2.397,9.847
108530,9.958,-1.866,0.623,1.427,2.595,7.901
108580,9.867,-1.911,0.829,1.847,2.878,5.55
108631,9.903,-1.954,0.714,2.031,2.916,3.267
108681,9.927,-1.938,0.845,1.916,2.84,0.779
108730,9.947,-1.993,0.793,1.511,2.756,-1.603
108780,9.93,-1.969,0.788,0.84,2.328,-4.053
108830,9.956,-1.969,0.824,-0.145,1.901,-6.511
108880,9.935,-1.885,0.929,-1.313,1.489,-9.038
108931,9.82,-1.803,0.97,-2.466,1.023,-10.954
108981,9.86,-1.832,0.915,-3.802,0.802,-13.252
109030,9.86,-1.674,0.941,-5.061,0.069,-14.863
109080,9.817,-1.523,0.86,-6.527,-0.473,-16.374
109130,9.87,-1.442,0.932,-7.611,-0.954,-17.282
109180,9.848,-1.26,0.781,-8.45,-1.298,-17.565
109231,9.879,-1.15,0.901,-9.008,-1.405,-17.573
109281,9.844,-0.999,0.867,-9.511,-1.275,-17.405
109330,9.884,-0.968,0.709,-9.725,-0.977,-16.504
109380,9.975,-0.8,0.754,-9.794,-0.771,-15.679
109430,9.982,-0.692,0.671,-9.641,-0.771,-14.466
109480,10.009,-0.611,0.73,-9.405,-0.626,-12.832
109531,10.047,-0.402,0.733,-9.13,-0.511,-10.718
109580,9.999,-0.331,0.647,-8.519,-0.534,-7.855
109630,10.064,-0.266,0.668,-7.901,-0.397,-4.702
109680,10.081,-0.249,0.635,-7.122,0.038,-1.176
109730,10.169,-0.261,0.606,-6.435,0.458,2.084
109780,10.2,-0.388,0.527,-5.458,0.954,5.443
109831,10.133,-0.481,0.644,-4.634,1.229,8.092
109880,10.246,-0.613,0.711,-3.824,2.046,10.023
109930,10.243,-0.738,0.663,-2.847,2.542,11.344
109980,10.186,-0.867,0.656,-2.366,2.42,12.26
110030,10.251,-0.989,0.711,-1.817,2.656,12.519
110081,10.169,-1.106,0.8,-1.542,2.672,12.542
110131,10.248,-1.174,0.778,-1.511,2.763,12.458
110180,10.136,-1.231,0.829,-1.718,2.634,12.183
110230,10.09,-1.298,0.802,-2.076,2.542,11.725
110280,10.05,-1.408,0.848,-2.603,2.557,11.145
110330,9.97,-1.454,0.85,-3.252,2.336,10.26
110381,10.085,-1.466,0.898,-4.153,1.977,9.176
110431,10.059,-1.514,0.766,-5.237,1.58,8.206
110480,10.014,-1.605,0.987,-6.275,1.282,7.046
110530,9.966,-1.612,0.968,-7.359,0.649,5.779
110580,9.978,-1.631,0.898,-8.298,0.0,4.412
110630,9.937,-1.686,0.915,-9.031,-0.244,3.008
110681,9.844,-1.712,0.817,-9.687,-0.573,1.718
110731,9.889,-1.7,0.869,-10.229,-0.939,0.13
110780,9.808,-1.736,0.74,-10.13,-1.015,-1.412
110830,9.942,-1.76,0.812,-10.061,-0.802,-3.069
110880,9.903,-1.7,0.639,-9.496,-0.824,-5.153
110930,9.82,-1.803,0.673,-8.649,-0.618,-7.031
110981,9.858,-1.715,0.644,-7.802,-0.229,-9.13
111031,9.867,-1.744,0.608,-6.473,0.282,-10.939
111081,9.805,-1.581,0.692,-5.076,0.832,-12.679
111131,9.913,-1.487,0.541,-3.893,1.221,-13.87
111181,9.913,-1.423,0.639,-2.672,1.626,-14.511
111232,9.884,-1.305,0.644,-1.702,2.107,-15.107
111282,9.923,-1.164,0.683,-0.809,2.412,-15.382
111331,9.882,-1.135,0.769,-0.344,2.87,-15.458
111381,9.947,-1.008,0.757,0.16,2.565,-15.183
111431,9.985,-0.893,0.826,0.359,2.626,-14.702
111481,9.961,-0.719,0.759,0.206,2.489,-13.649
111532,9.985,-0.627,0.757,0.031,2.153,-11.924
111582,10.038,-0.453,0.862,-0.344,1.947,-9.809
111631,10.157,-0.426,0.845,-0.87,1.855,-7.038
111681,10.136,-0.331,0.788,-1.58,1.931,-4.107
111731,10.162,-0.395,0.778,-2.221,1.985,-0.916
111781,10.239,-0.386,0.788,-2.763,1.885,1.87
111832,10.215,-0.455,0.783,-3.748,1.687,4.565
111882,10.234,-0.525,0.848,-4.71,1.626,6.466
111931,10.234,-0.649,0.831,-5.702,1.313,7.939
111981,10.157,-0.771,0.941,-6.672,0.901,9.008
112031,10.196,-0.862,0.869,-7.779,0.198,9.84
112081,10.2,-0.96,0.982,-8.901,-0.366,10.221
112132,10.184,-1.011,0.86,-10.008,-0.817,10.947
112182,10.112,-1.044,0.884,-10.71,-1.16,11.412
112231,10.107,-1.092,0.812,-11.015,-1.534,11.672
112281,10.129,-1.198,0.709,-11.122,-1.733,11.748
112331,10.081,-1.19,0.687,-10.855,-1.687,11.58
112381,9.973,-1.279,0.745,-10.557,-1.588,11.214
112432,10.028,-1.375,0.661,-9.672,-1.374,10.885
112482,9.994,-1.447,0.699,-8.725,-0.863,10.26
112532,9.978,-1.523,0.709,-7.405,-0.504,9.275
112582,10.006,-1.645,0.671,-6.137,-0.076,8.267
112632,9.927,-1.691,0.668,-4.565,0.427,7.061
112683,9.994,-1.756,0.625,-3.305,0.695,5.679
112733,9.891,-1.878,0.656,-1.565,1.313,3.954
112782,9.879,-1.875,0.733,-0.038,1.466,1.763
112832,9.882,-1.964,0.709,1.366,1.779,-0.473
112882,9.856,-2.021,0.702,2.45,2.069,-3.076
112932,9.805,-1.973,0.707,3.565,2.382,-5.893
112983,9.839,-2.017,0.659,4.29,2.725,-8.847
113033,9.788,-1.93,0.719,4.847,2.809,-11.664
113082,9.932,-1.847,0.726,5.084,2.939,-13.969
113132,9.865,-1.753,0.781,4.992,2.817,-16.015
113182,9.882,-1.571,0.807,4.504,2.504,-17.359
113232,9.86,-1.48,0.86,3.786,2.313,-18.534
113283,9.903,-1.277,0.886,2.924,1.756,-18.985
113333,9.93,-1.133,0.946,1.641,1.099,-19.221
113382,9.958,-1.023,0.939,0.382,0.618,-18.954
113432,9.966,-0.824,0.944,-1.237,-0.046,-18.168
113482,10.018,-0.656,0.86,-2.267,-0.481,-17.031
113532,9.975,-0.493,0.812,-3.573,-0.832,-14.733
113583,10.023,-0.369,0.857,-4.473,-1.053,-12.267
113633,10.071,-0.304,0.838,-5.176,-1.328,-9.145
113682,10.157,-0.187,0.86,-5.847,-1.366,-5.504
113732,10.141,-0.165,0.872,-6.191,-1.183,-1.855
113782,10.21,-0.18,0.759,-6.298,-1.443,1.542
113832,10.2,-0.285,0.74,-6.069,-0.947,4.74
113883,10.241,-0.41,0.685,-5.969,-0.74,7.153
113932,10.167,-0.529,0.668,-5.321,-0.191,9.382
113982,10.272,-0.613,0.659,-4.939,-0.176,10.931
114032,10.164,-0.68,0.723,-4.183,0.107,12.115
114082,10.069,-0.728,0.774,-3.756,0.137,13.519
114132,10.169,-0.877,0.742,-3.191,0.115,14.305
114183,10.093,-0.97,0.678,-2.366,0.466,15.092
114232,10.157,-1.054,0.721,-1.489,0.649,15.603
114282,10.052,-1.169,0.74,-0.626,0.901,15.817
114332,10.093,-1.308,0.716,-0.053,1.26,15.626
114382,10.076,-1.406,0.649,0.71,1.924,14.824
114433,9.999,-1.574,0.697,1.084,2.198,13.924
114483,9.903,-1.729,0.659,1.542,2.397,12.382
114532,9.92,-1.789,0.726,1.557,2.71,10.809
114582,9.949,-1.854,0.8,1.298,2.481,8.985
114632,9.915,-1.873,0.742,0.916,2.26,6.908
114682,10.014,-1.906,0.886,0.298,1.832,4.611
114733,9.894,-2.021,0.903,-0.763,1.336,2.191
114783,9.908,-2.038,0.881,-1.511,0.779,-0.702
114832,9.872,-2.103,0.819,-2.573,0.489,-3.71
114882,9.915,-2.098,0.855,-3.412,0.053,-6.687
114932,9.808,-2.103,0.886,-4.107,-0.473,-10.115
114982,9.824,-2.06,0.812,-4.733,-0.71,-13.053
115033,9.841,-1.921,0.848,-5.321,-0.679,-15.802
115083,9.865,-1.748,0.826,-5.405,-0.84,-18.015
115132,9.86,-1.578,0.759,-5.672,-0.977,-19.817
115182,9.796,-1.475,0.762,-5.656,-0.985,-20.832
115232,9.81,-1.214,0.721,-5.382,-0.588,-21.206
115282,9.915,-1.092,0.754,-5.046,-0.489,-20.885
115333,9.858,-0.913,0.742,-4.611,-0.229,-20.206
115383,9.99,-0.719,0.687,-4.115,0.084,-18.969
115433,9.992,-0.613,0.666,-3.588,0.359,-17.504
115483,9.985,-0.441,0.695,-3.023,0.603,-15.366
115533,9.939,-0.328,0.754,-2.382,0.679,-12.641
115584,10.093,-0.194,0.637,-1.832,0.733,-9.496
115634,10.117,-0.187,0.709,-1.565,0.901,-5.672
115683,10.133,-0.103,0.695,-0.908,0.962,-2.061
115733,10.148,-0.223,0.692,-0.466,1.374,1.802
115783,10.167,-0.297,0.604,-0.053,1.603,5.076
115833,10.246,-0.374,0.659,0.313,1.939,8.191
115884,10.203,-0.496,0.639,0.672,2.481,10.458
115934,10.172,-0.599,0.757,0.626,2.74,12.305
115983,10.239,-0.762,0.807,0.466,2.618,13.466
116033,10.15,-0.867,0.857,0.092,2.71,14.282
116083,10.126,-0.958,0.845,-0.252,2.405,14.916
116133,10.119,-1.085,0.903,-1.153,1.939,15.496
116184,10.131,-1.118,0.879,-2.008,1.74,15.695
116234,10.097,-1.269,0.932,-3.053,1.405,15.382
116283,9.992,-1.377,0.932,-3.939,0.969,14.786
116333,9.98,-1.528,0.862,-4.863,0.542,13.748
116383,9.975,-1.688,0.898,-5.947,0.176,12.29
116433,9.906,-1.72,0.867,-6.756,-0.061,10.595
116484,9.939,-1.732,0.752,-7.298,-0.351,8.71
116534,9.99,-1.784,0.927,-7.687,-0.824,6.771
116583,9.949,-1.777,0.817,-7.687,-0.809,4.931
116633,9.944,-1.854,0.812,-8.084,-1.153,2.916
116683,9.942,-1.911,0.766,-7.527,-0.893,0.939
116733,9.889,-1.871,0.661,-7.038,-0.779,-0.924
116784,9.961,-1.923,0.63,-6.389,-0.511,-3.565
116834,9.918,-1.947,0.637,-5.458,-0.168,-5.748
116884,9.903,-1.993,0.611,-4.45,0.145,-8.092
116934,9.856,-1.849,0.661,-3.237,0.359,-10.611
116984,9.863,-1.787,0.611,-2.336,0.863,-12.855
117035,9.824,-1.645,0.651,-0.969,1.092,-15.008
117085,9.87,-1.506,0.577,-0.145,1.282,-16.634
117134,9.812,-1.377,0.728,0.534,1.282,-17.55
117184,9.867,-1.238,0.673,1.336,1.794,-18.344
117234,9.906,-1.14,0.74,1.786,1.687,-18.198
117284,9.982,-0.934,0.79,2.153,1.924,-17.664
117335,9.913,-0.877,0.723,2.382,2.008,-16.634
117385,10.03,-0.73,0.759,2.443,1.71,-15.519
117434,10.011,-0.582,0.857,2.237,1.802,-13.809
117484,10.021,-0.56,0.833,1.992,1.817,-11.977
117534,10.112,-0.395,0.817,1.389,1.412,-9.443
117584,10.097,-0.314,0.807,0.779,1.519,-6.305
117635,10.105,-0.333,0.865,0.053,1.328,-3.198
117685,10.186,-0.302,0.812,-0.687,1.191,-0.321
117734,10.121,-0.321,0.836,-1.374,0.84,2.618
117784,10.088,-0.496,0.91,-2.16,0.519,5.298
117834,10.143,-0.565,0.848,-2.985,0.176,7.527
117884,10.198,-0.632,0.783,-3.481,0.145,8.931
117935,10.176,-0.721,0.759,-4.282,-0.267,9.985
117985,10.133,-0.922,0.802,-4.679,-0.191,10.496
118034,10.191,-0.92,0.764,-5.053,-0.26,11.191
118084,10.184,-1.032,0.817,-5.145,-0.618,11.344
118134,10.095,-1.106,0.714,-5.252,-0.679,11.687
118184,10.107,-1.178,0.759,-5.0,-0.71,11.817
118235,10.023,-1.181,0.723,-4.817,-0.359,11.718
118284,10.088,-1.277,0.659,-4.122,-0.443,11.237
118334,10.002,-1.37,0.654,-3.573,0.046,10.695
118384,9.99,-1.499,0.654,-2.947,0.397,9.656
118434,10.009,-1.506,0.719,-2.305,0.397,8.527
118484,9.982,-1.504,0.719,-1.603,0.756,7.115
118535,10.05,-1.609,0.711,-0.809,0.931,6.191
118584,9.947,-1.617,0.695,-0.237,1.023,5.107
118634,9.954,-1.619,0.675,0.412,1.023,3.779
118684,9.966,-1.681,0.687,1.0,1.16,2.305
118734,9.925,-1.775,0.613,1.542,1.282,0.893
118785,9.963,-1.739,0.798,1.794,1.443,-0.809
118835,9.896,-1.835,0.79,2.115,1.809,-2.733
118884,9.856,-1.772,0.699,1.855,1.84,-4.916
118934,9.882,-1.823,0.814,2.015,1.916,-7.176
118984,9.884,-1.756,0.8,1.565,1.71,-8.962
119034,9.863,-1.638,0.886,0.954,1.489,-11.13
119085,9.875,-1.605,0.781,0.053,1.252,-12.817
119135,9.824,-1.54,0.841,-0.626,0.756,-14.221
119184,9.803,-1.454,0.999,-1.809,0.191,-15.046
119234,9.848,-1.334,0.886,-2.977,-0.191,-15.664
119284,9.894,-1.221,0.96,-3.939,-0.794,-15.985
119334,9.935,-1.087,0.793,-4.824,-0.939,-15.908
119385,9.93,-0.972,0.817,-5.634,-1.221,-15.458
119435,9.999,-0.845,0.81,-6.069,-1.511,-14.42
119484,10.023,-0.714,0.798,-6.298,-1.542,-13.168
119534,10.018,-0.58,0.812,-6.397,-1.45,-11.061
119584,9.987,-0.536,0.726,-6.366,-1.26,-8.603
119634,10.038,-0.469,0.707,-6.153,-1.122,-6.084
119685,10.143,-0.465,0.587,-5.351,-0.802,-3.397
119735,10.157,-0.587,0.62,-4.832,-0.511,-0.992
119785,10.248,-0.577,0.671,-4.137,-0.046,1.244
119835,10.248,-0.62,0.649,-3.336,0.359,3.153
119885,10.124,-0.659,0.649,-2.473,0.634,4.565
119936,10.215,-0.707,0.719,-1.626,1.099,5.771
119986,10.265,-0.781,0.728,-0.84,1.084,6.962
120035,10.164,-0.831,0.69,0.008,1.427,8.046
120085,10.112,-0.81,0.719,0.695,1.489,8.962
120135,10.126,-0.865,0.709,1.328,2.015,9.977
120185,10.078,-0.908,0.608,1.893,2.221,11.069
120236,10.071,-1.023,0.659,2.13,2.527,11.672
120286,10.026,-1.111,0.654,2.45,2.954,12.305
120335,10.093,-1.193,0.766,2.221,3.099,12.336
120385,10.026,-1.238,0.764,2.313,3.008,12.298
120435,10.011,-1.3,0.807,1.664,2.947,11.84
120485,10.028,-1.413,0.908,0.695,2.565,11.313
120536,9.999,-1.54,0.754,-0.084,2.275,10.252
120586,9.958,-1.54,0.805,-1.214,1.626,9.427
120635,9.911,-1.691,0.975,-2.168,1.221,8.389
120685,9.966,-1.712,0.843,-3.481,0.84,6.924
120735,9.875,-1.772,0.948,-4.58,0.351,5.198
120785,9.951,-1.897,0.817,-5.489,0.015,3.145
120836,9.942,-1.997,0.86,-6.405,-0.153,0.626
120886,9.87,-2.007,0.781,-7.038,-0.382,-2.168
120935,9.915,-2.074,0.824,-7.809,-0.74,-5.229
120985,9.947,-1.935,0.819,-8.107,-0.603,-8.046
121035,9.856,-1.947,0.786,-8.519,-0.809,-11.023
121085,9.875,-1.875,0.798,-8.305,-0.802,-13.725
121136,9.841,-1.756,0.774,-8.275,-0.672,-15.802
121186,9.791,-1.66,0.709,-8.191,-0.473,-17.817
121236,9.863,-1.442,0.759,-7.779,-0.595,-19.168
121286,9.882,-1.365,0.754,-7.267,-0.397,-19.725
121336,9.834,-1.128,0.675,-6.672,-0.198,-19.916
121387,9.872,-1.006,0.663,-6.29,-0.153,-19.573
121437,9.911,-0.81,0.62,-5.42,-0.031,-18.389
121486,9.975,-0.62,0.692,-4.87,0.183,-16.931
121536,9.93,-0.541,0.613,-3.863,0.466,-14.748
121586,10.066,-0.378,0.659,-3.198,0.786,-12.053
121636,10.15,-0.374,0.661,-2.336,1.466,-9.191
121687,10.164,-0.285,0.668,-1.534,1.908,-6.015
121737,10.234,-0.278,0.601,-1.031,2.725,-2.779
121786,10.172,-0.273,0.709,-0.557,2.855,0.16
121836,10.212,-0.429,0.697,-0.618,3.053,2.489
121886,10.121,-0.431,0.709,-0.779,2.763,5.13
121936,10.239,-0.491,0.771,-0.901,2.725,7.122
121987,10.212,-0.513,0.812,-1.763,2.313,8.824
122037,10.15,-0.606,0.867,-2.359,1.779,10.221
122086,10.164,-0.73,0.917,-3.115,1.42,12.053
122136,10.141,-0.75,0.896,-3.824,1.16,13.374
122186,10.143,-0.819,0.855,-4.702,0.847,14.565
122236,10.093,-0.975,0.913,-5.229,0.679,15.626
122287,10.057,-1.051,0.869,-5.969,0.443,16.16
122337,9.999,-1.195,0.783,-6.244,0.611,16.206
122386,10.052,-1.387,0.752,-6.588,0.214,15.687
122436,10.071,-1.444,0.721,-6.672,0.237,14.885
122486,9.872,-1.605,0.644,-6.855,-0.053,13.771
122536,9.875,-1.672,0.802,-6.718,0.214,12.458
122587,9.911,-1.746,0.73,-6.42,0.183,10.969
122636,9.911,-1.854,0.702,-6.069,0.153,9.137
122686,9.913,-1.916,0.764,-5.832,0.336,6.931
122736,9.891,-2.062,0.661,-5.13,0.229,4.473
122786,9.812,-2.067,0.778,-4.534,0.557,1.504
122836,9.923,-2.1,0.802,-3.901,0.389,-1.672
122887,9.844,-2.156,0.639,-3.069,0.611,-4.847
122936,9.836,-2.196,0.639,-2.427,0.855,-8.107
122986,9.805,-2.1,0.771,-1.809,1.046,-11.298
123036,9.803,-2.076,0.695,-1.115,1.275,-14.29
123086,9.786,-1.921,0.671,-0.771,1.42,-16.977
123137,9.793,-1.748,0.738,-0.244,1.611,-19.298
123187,9.827,-1.574,0.678,-0.244,1.817,-20.939
123236,9.863,-1.38,0.733,-0.267,1.626,-22.061
123286,9.913,-1.188,0.764,-0.58,1.435,-22.229
123336,9.915,-1.051,0.778,-1.092,1.282,-21.687
123386,9.932,-0.788,0.869,-1.58,1.046,-20.748
123437,9.985,-0.661,0.872,-2.328,0.649,-19.305
123487,10.107,-0.51,0.824,-2.985,0.282,-17.038
123536,10.083,-0.304,0.879,-3.87,0.137,-14.29
123586,10.131,-0.297,0.948,-4.298,-0.122,-11.55
123636,10.164,-0.187,0.838,-4.985,-0.26,-7.924
123686,10.172,-0.168,0.877,-5.458,-0.336,-4.344
123737,10.174,-0.172,0.829,-5.893,-0.29,-0.824
123787,10.203,-0.268,0.742,-6.015,-0.389,2.45
123836,10.243,-0.285,0.821,-6.099,-0.084,5.626
123886,10.21,-0.436,0.807,-5.992,0.137,8.031
123936,10.241,-0.498,0.786,-5.847,0.237,9.969
123986,10.181,-0.604,0.735,-5.878,0.29,11.756
124037,10.232,-0.685,0.687,-5.412,0.244,13.183
124087,10.184,-0.788,0.69,-5.221,0.328,14.244
124137,10.2,-0.884,0.74,-4.641,0.198,15.137
124187,10.164,-0.977,0.733,-4.053,0.321,15.977
124237,10.057,-1.14,0.692,-3.611,0.29,16.214
124288,10.042,-1.293,0.699,-2.809,0.534,16.176
124338,10.014,-1.399,0.73,-2.13,1.0,15.313
124387,9.994,-1.518,0.678,-1.321,1.191,14.489
124437,9.954,-1.576,0.683,-0.901,1.695,13.282
124487,9.906,-1.724,0.69,-0.206,2.084,11.771
124537,9.932,-1.703,0.745,0.443,2.221,10.13
124588,9.851,-1.811,0.886,0.763,2.466,8.565
124638,9.853,-1.89,0.817,0.832,2.405,6.489
124687,9.932,-1.942,0.733,0.504,2.336,4.359
124737,9.918,-2.067,0.841,0.038,2.069,1.824
124787,9.877,-1.964,0.879,-0.443,1.794,-0.794
124837,9.822,-2.007,0.831,-1.29,1.359,-3.565
124888,9.8,-2.05,0.841,-1.893,1.046,-6.321
124938,9.815,-2.055,0.869,-2.939,0.489,-9.29
124987,9.75,-1.985,0.905,-3.786,0.244,-12.0
125037,9.767,-1.938,0.735,-4.725,0.069,-14.74
125087,9.805,-1.784,0.958,-5.534,-0.16,-17.076
125137,9.776,-1.607,0.869,-6.023,-0.397,-18.771
125188,9.877,-1.439,0.848,-6.618,-0.481,-19.931
125238,9.848,-1.265,0.905,-7.176,-0.573,-20.687
125287,9.944,-1.083,0.86,-7.618,-0.634,-20.107
125337,9.925,-0.915,0.817,-7.771,-0.542,-19.282
125387,10.009,-0.757,0.764,-7.939,-0.481,-18.137
125437,10.009,-0.673,0.857,-7.893,-0.542,-16.389
125488,10.004,-0.503,0.68,-7.824,-0.504,-14.626
125538,10.083,-0.474,0.709,-7.557,-0.473,-12.099
125588,10.119,-0.362,0.719,-7.183,-0.267,-9.252
125638,10.085,-0.263,0.769,-7.076,-0.053,-6.084
125688,10.126,-0.326,0.627,-6.412,-0.13,-2.939
125739,10.184,-0.323,0.74,-5.771,0.466,0.198
125789,10.124,-0.352,0.625,-5.015,0.947,3.092
125838,10.255,-0.433,0.683,-4.443,1.359,5.649
125888,10.193,-0.62,0.601,-3.771,1.687,7.351
125938,10.224,-0.649,0.742,-3.191,1.885,9.145
125988,10.227,-0.759,0.745,-2.611,2.198,10.359
126039,10.176,-0.769,0.723,-2.298,2.496,11.275
126089,10.196,-0.836,0.695,-2.053,2.427,12.153
126138,10.097,-0.953,0.786,-2.153,2.519,12.695
126188,10.129,-1.03,0.752,-2.221,2.229,13.611
126238,10.04,-1.085,0.75,-2.527,2.298,13.901
126288,10.006,-1.298,0.853,-2.855,2.183,13.763
126339,10.011,-1.382,0.711,-3.229,2.0,13.595
126389,9.985,-1.48,0.853,-4.023,1.733,12.756
126438,9.918,-1.494,0.97,-4.588,1.435,11.672
126488,9.896,-1.562,0.853,-5.206,1.107,10.489
126538,9.994,-1.609,0.963,-5.824,0.695,9.244
126588,10.03,-1.679,0.874,-6.443,0.511,7.939
126639,9.978,-1.765,0.807,-6.954,0.359,6.496
126689,9.966,-1.777,0.728,-7.298,0.061,4.763
126738,9.865,-1.945,0.86,-7.534,0.053,2.977
126788,9.86,-1.911,0.747,-7.557,-0.092,0.969
126838,9.939,-1.945,0.661,-7.45,0.053,-1.298
126888,9.848,-1.966,0.656,-7.015,0.176,-3.87
126939,9.913,-2.014,0.795,-6.603,0.252,-6.565
126988,9.913,-1.933,0.781,-6.275,0.374,-9.45
127038,9.906,-1.897,0.798,-5.595,0.382,-12.359
127088,9.935,-1.818,0.707,-5.031,0.557,-15.031
127138,9.887,-1.648,0.745,-4.13,0.901,-17.015
127188,9.903,-1.528,0.692,-3.626,0.947,-18.725
127239,9.896,-1.363,0.754,-3.206,1.229,-19.534
127288,9.891,-1.164,0.771,-2.679,1.153,-19.519
127338,9.882,-1.023,0.745,-2.45,1.496,-19.076
127388,9.836,-0.833,0.666,-2.084,1.649,-18.053
127438,9.93,-0.764,0.738,-2.038,1.718,-16.58
127489,9.891,-0.675,0.759,-1.947,1.855,-14.817
127539,9.911,-0.558,0.778,-1.977,1.824,-12.84
127588,10.033,-0.438,0.75,-2.031,1.733,-10.496
127638,10.004,-0.347,0.81,-2.344,1.718,-7.84
127688,10.138,-0.383,0.81,-2.702,1.321,-5.0
127738,10.184,-0.328,0.75,-3.107,1.397,-2.282
127789,10.176,-0.335,0.817,-3.565,1.206,0.42
127839,10.198,-0.429,0.833,-4.145,1.252,3.176
127888,10.164,-0.402,0.807,-4.679,1.206,5.321
127938,10.172,-0.572,0.817,-5.214,0.863,7.252
127988,10.109,-0.572,0.86,-5.58,0.885,8.87
128038,10.117,-0.707,0.786,-6.046,0.58,10.252
128089,10.066,-0.776,0.819,-6.679,0.519,11.908
128139,10.066,-0.829,0.716,-6.985,0.29,12.977
128188,10.16,-0.92,0.781,-7.29,0.313,13.55
128238,10.131,-1.023,0.798,-7.496,0.061,14.191
128288,10.05,-1.114,0.86,-7.824,-0.015,14.656
128338,10.069,-1.229,0.73,-7.809,-0.084,14.244
128389,10.057,-1.329,0.764,-7.847,-0.046,14.0
128439,9.985,-1.401,0.754,-7.702,-0.29,13.229
128489,10.045,-1.521,0.699,-7.397,-0.397,12.229
128539,9.963,-1.602,0.757,-7.023,-0.695,11.366
128589,9.93,-1.648,0.75,-6.237,-0.458,10.153
128640,9.949,-1.758,0.663,-5.534,-0.214,8.702
128690,9.968,-1.844,0.735,-4.237,0.115,7.038
128739,9.891,-1.926,0.625,-3.107,0.504,4.962
128789,9.958,-1.997,0.656,-1.969,1.092,2.458
128839,9.97,-2.029,0.668,-0.954,1.55,-0.252
128889,9.915,-2.117,0.738,0.023,1.947,-3.069
128940,9.894,-2.146,0.659,0.863,2.237,-6.443
128990,9.911,-2.122,0.75,1.55,2.176,-9.74
129039,9.92,-2.067,0.726,1.908,2.183,-13.053
129089,9.913,-1.904,0.8,1.969,2.244,-16.038
129139,9.82,-1.784,0.845,1.817,2.13,-18.672
129189,9.875,-1.602,0.759,1.603,1.87,-20.565
129240,9.87,-1.389,0.879,0.664,1.397,-21.824
129290,9.877,-1.176,0.848,0.107,0.977,-21.84
129339,9.848,-1.037,0.874,-0.824,0.443,-21.427
129389,9.903,-0.881,0.927,-1.58,0.145,-20.214
129439,9.884,-0.702,0.812,-2.229,-0.107,-18.565
129489,9.918,-0.58,0.884,-2.939,-0.359,-16.672
129540,10.018,-0.481,0.853,-3.427,-0.405,-14.359
129590,10.023,-0.304,0.793,-3.893,-0.336,-11.672
129639,10.112,-0.302,0.807,-4.191,-0.397,-8.939
129689,10.172,-0.278,0.788,-4.267,-0.145,-5.733
129739,10.143,-0.261,0.817,-4.382,0.214,-2.565
129789,10.263,-0.165,0.683,-4.588,0.298,0.679
129840,10.224,-0.283,0.826,-4.55,0.252,3.656
129890,10.152,-0.299,0.793,-4.611,0.183,6.389
129940,10.143,-0.453,0.719,-4.641,0.13,8.71
129990,10.179,-0.57,0.807,-4.58,0.046,10.947
130040,10.143,-0.592,0.776,-4.458,-0.168,12.641
130091,10.15,-0.704,0.721,-4.198,-0.084,14.115
130141,10.143,-0.85,0.764,-3.725,0.115,15.405
130190,10.15,-0.97,0.81,-3.397,0.366,15.969
130240,10.112,-1.006,0.661,-2.595,0.641,16.443
130290,10.052,-1.226,0.707,-2.137,1.168,16.664
130340,10.081,-1.267,0.596,-1.504,1.427,16.267
130391,10.071,-1.425,0.68,-1.053,1.702,15.656
130441,10.018,-1.559,0.802,-0.725,2.183,14.496
130490,9.956,-1.677,0.671,-0.565,1.916,13.298
130540,9.872,-1.712,0.757,-0.588,2.115,11.672
130590,9.915,-1.823,0.819,-0.947,1.679,9.809
130640,9.92,-1.928,0.771,-1.16,1.496,7.962
130691,9.86,-2.021,0.867,-1.611,1.267,5.519
130741,9.913,-2.024,0.795,-2.137,0.893,3.061
130790,9.978,-2.076,0.793,-2.664,0.55,0.267
130840,9.966,-2.072,0.841,-3.176,0.473,-2.618
130890,9.844,-2.079,0.754,-3.504,0.13,-5.977
130940,9.901,-2.069,0.824,-3.618,0.031,-9.137
130991,9.906,-2.093,0.778,-3.893,0.176,-12.328
131041,9.891,-1.906,0.728,-3.977,0.015,-15.45
131090,9.767,-1.88,0.845,-3.901,0.099,-18.046
131140,9.832,-1.727,0.697,-3.977,0.206,-20.198
131190,9.915,-1.504,0.745,-4.0,0.183,-21.817
131240,9.884,-1.245,0.74,-3.962,0.298,-22.443
131291,9.844,-1.02,0.855,-4.031,0.076,-22.023
131340,9.975,-0.927,0.812,-4.107,0.038,-20.985
131390,9.999,-0.702,0.841,-3.855,-0.137,-19.435
131440,9.987,-0.63,0.788,-3.817,-0.153,-17.542
131490,10.047,-0.496,0.692,-3.656,-0.229,-15.336
131540,10.064,-0.448,0.709,-3.275,-0.008,-12.74
131591,10.093,-0.307,0.666,-2.847,0.229,-10.015
131640,10.143,-0.299,0.685,-2.397,0.55,-6.985
131690,10.085,-0.184,0.647,-1.893,0.931,-3.832
131740,10.16,-0.208,0.659,-1.641,1.496,-0.542
131790,10.174,-0.307,0.788,-1.29,1.802,2.511
131841,10.138,-0.321,0.821,-0.748,1.962,5.504
131891,10.105,-0.436,0.788,-0.87,2.191,8.252
131940,10.186,-0.501,0.778,-0.84,2.076,10.695
131990,10.27,-0.553,0.908,-1.115,2.038,12.321
132040,10.198,-0.728,0.79,-1.557,1.763,13.954
132090,10.078,-0.805,0.85,-1.885,1.344,14.878
132141,10.097,-0.965,0.845,-2.176,1.298,15.542
132191,10.148,-1.116,0.819,-2.679,0.939,15.87
132240,10.081,-1.248,0.862,-3.076,1.038,15.771
132290,10.057,-1.332,0.807,-3.527,1.015,15.412
132340,9.978,-1.439,0.862,-3.748,1.214,14.733
132390,9.966,-1.494,0.786,-4.115,1.153,13.672
132441,9.97,-1.564,0.795,-4.58,1.008,12.481
132541,9.951,-1.71,0.848,-5.71,0.634,9.695
132590,9.985,-1.861,0.972,-5.802,0.145,7.885
132640,9.966,-1.811,0.86,-6.237,-0.237,5.985
132690,9.932,-1.918,0.812,-6.305,-0.412,3.916
132741,9.949,-1.969,0.865,-6.13,-0.427,1.466
132791,10.018,-2.009,0.695,-5.939,-0.664,-0.977
