time_ms,ax,ay,az,gx,gy,gz
88,9.982,0.160,0.448,-3.740,1.603,-0.122
136,10.109,0.096,0.536,-2.809,-0.092,-2.511
186,10.014,0.146,0.659,-3.931,2.221,-0.244
236,10.172,0.132,0.584,-3.130,0.015,-0.725
286,9.973,0.251,0.546,-2.634,-0.725,-2.237
336,10.040,0.146,0.589,-4.519,1.969,0.389
387,10.105,0.160,0.594,-3.527,0.519,-0.137
436,10.117,0.132,0.671,-3.382,0.496,-1.427
486,9.985,0.235,0.611,-3.832,0.794,-0.450
536,10.131,0.299,0.656,-3.053,0.695,-0.382
586,10.229,0.122,0.766,-3.511,1.206,-0.176
636,10.045,0.206,0.474,-3.015,0.794,-1.748
687,10.014,0.146,0.738,-4.160,0.794,-0.588
736,10.052,0.096,0.709,-3.214,1.481,-0.679
786,10.176,0.244,0.671,-2.969,0.931,-1.550
836,10.021,0.103,0.498,-4.099,0.496,-0.344
886,10.023,0.120,0.594,-3.076,0.290,-1.282
936,10.069,0.216,0.685,-3.511,0.687,-0.870
987,10.095,0.177,0.625,-3.947,2.069,-1.008
1036,9.982,0.160,0.618,-3.702,0.466,-0.382
1086,10.193,0.201,0.616,-2.649,0.275,-2.061
1136,9.937,0.225,0.690,-3.679,1.748,-0.954
1186,10.028,0.196,0.620,-3.450,0.221,-0.496
1236,10.203,0.213,0.616,-2.939,1.237,-2.351
1286,9.954,0.201,0.544,-3.885,0.924,-0.153
1336,10.064,0.127,0.604,-4.389,-0.176,-0.084
1386,10.006,0.261,0.630,-2.557,1.359,-1.992
1436,10.133,0.235,0.714,-3.122,0.321,-0.527
1486,10.026,0.180,0.685,-4.290,1.389,0.053
1537,10.095,0.156,0.584,-3.092,0.252,-0.977
1586,10.023,0.081,0.671,-4.565,1.328,-0.046
1636,10.129,0.249,0.709,-3.817,1.389,0.069
1686,10.045,0.158,0.680,-2.855,1.015,-1.855
1736,10.169,0.081,0.733,-4.115,1.069,-0.588
1786,9.963,0.271,0.544,-3.573,0.702,-2.069
1837,10.059,0.132,0.678,-3.695,1.954,-2.031
1886,10.054,0.295,0.697,-3.489,0.191,0.191
1936,10.069,0.225,0.620,-2.901,1.496,-2.160
1986,10.145,0.084,0.745,-3.191,0.695,-0.351
2036,10.018,0.232,0.661,-3.405,0.015,-0.313
2086,10.234,0.144,0.750,-3.244,1.038,-1.649
2137,10.004,0.189,0.616,-3.603,0.603,-0.290
2186,10.040,0.201,0.726,-3.595,0.931,-0.542
2236,10.124,0.137,0.711,-3.336,0.565,-0.893
2286,10.023,0.218,0.627,-3.489,0.260,-1.366
2336,10.093,0.098,0.687,-4.008,1.069,-0.115
2386,10.069,0.249,0.580,-3.061,1.382,-0.870
2437,10.150,0.146,0.683,-3.901,2.153,-0.817
2486,9.942,0.249,0.697,-3.809,1.122,-0.710
2536,10.119,0.180,0.541,-3.863,1.023,-0.939
2586,10.097,0.247,0.704,-3.687,1.244,-1.183
2636,10.186,0.216,0.608,-3.321,0.794,-1.046
2686,9.987,0.067,0.649,-3.756,1.214,-0.107
2737,10.114,0.237,0.690,-3.282,0.687,-1.344
2787,10.069,0.247,0.654,-3.237,1.031,-1.015
2837,10.069,0.117,0.635,-3.290,2.038,-0.809
2887,10.141,0.194,0.661,-4.198,1.573,0.046
2937,10.174,0.156,0.661,-2.565,2.031,-2.099
2988,10.090,0.170,0.733,-4.656,0.771,0.466
3037,10.121,0.225,0.781,-3.389,1.748,-0.924
3087,10.011,0.201,0.635,-3.099,0.443,-1.344
3137,10.205,0.251,0.843,-2.603,0.893,-2.137
3187,10.009,0.271,0.673,-2.863,0.496,-1.580
3237,10.121,0.187,0.774,-2.733,0.405,-1.733
3288,9.908,0.180,0.625,-4.359,0.237,1.107
3337,10.033,0.220,0.675,-2.405,2.122,-4.718
3387,10.167,0.098,0.754,-4.137,1.267,-3.756
3437,9.923,0.474,0.702,-5.260,0.489,0.977
3487,10.016,0.302,0.730,-2.985,2.832,-3.473
3537,10.255,0.223,0.860,-4.809,1.962,-1.038
3588,10.066,0.283,0.884,-4.267,1.359,1.084
3637,10.004,0.199,0.841,-4.153,2.191,-0.748
3687,9.961,0.271,0.754,-2.221,1.557,-2.412
3737,10.073,0.335,0.716,-1.321,3.359,-2.443
3787,10.040,0.228,1.042,-1.206,5.061,-2.550
3837,10.164,0.240,0.745,-5.550,2.893,2.710
3888,10.217,0.220,1.037,-2.076,2.198,-0.473
3937,10.215,0.148,0.929,-4.519,2.000,0.229
3987,10.133,0.290,0.941,-3.527,0.069,-0.733
4037,10.059,0.194,0.850,-4.450,0.481,0.840
4087,9.923,0.254,0.829,-3.053,0.618,0.809
4137,9.987,0.304,0.874,0.405,4.626,-3.443
4188,10.138,0.077,0.793,-4.359,1.237,1.084
4238,10.045,0.254,0.922,-3.496,2.344,-1.542
4288,10.050,0.225,0.963,-2.977,1.504,-1.969
4338,10.181,0.117,0.977,-4.298,1.634,1.481
4388,10.057,0.148,0.968,-4.580,1.115,-0.214
4439,9.997,0.283,1.047,-2.137,3.244,0.618
4488,10.109,0.321,0.946,-3.939,3.000,-3.076
4538,10.217,0.299,1.075,-1.931,1.985,-1.176
4588,9.968,0.144,0.908,-3.702,1.901,-1.672
4638,10.143,0.271,1.073,-3.779,-1.168,-1.328
4688,9.954,0.141,0.920,-3.733,-0.282,-1.053
4739,10.109,0.208,1.030,-3.282,2.992,-3.656
4788,10.227,0.156,0.956,-6.863,-1.481,8.710
4838,10.440,1.202,2.062,-6.160,-0.977,-6.160
4888,10.301,0.381,1.015,-1.893,2.069,3.275
4938,9.932,-0.105,0.987,-0.252,4.908,-8.130
4988,10.370,-0.005,1.083,-4.947,-2.168,-1.977
5039,10.061,0.520,1.083,-4.137,-2.405,0.160
5088,9.733,0.163,0.764,0.427,4.527,-5.321
5138,10.797,0.074,1.250,3.840,1.527,1.069
5188,10.255,0.639,0.910,-3.824,-9.046,15.405
5238,9.779,0.081,1.068,4.366,7.214,-1.924
5288,10.349,-0.455,1.035,-5.084,-6.160,-3.695
5339,9.681,0.208,1.042,-6.328,-8.351,18.870
5388,9.618,0.170,0.793,4.885,4.336,-0.817
5438,10.315,-0.319,1.054,2.725,5.069,1.496
5488,10.406,-0.345,1.051,2.611,0.527,-1.534
5538,9.970,-0.259,0.987,4.473,-0.466,1.718
5588,10.006,-0.268,1.006,0.099,-1.931,-2.771
5638,10.198,0.287,0.819,9.969,2.870,-3.656
5688,9.930,-0.165,1.025,11.275,-0.496,1.489
5738,10.073,-0.244,1.109,8.679,-1.084,-1.481
5788,9.762,-0.093,0.778,10.351,2.389,-3.985
5838,10.112,-0.575,0.917,2.870,1.160,3.206
5889,9.915,-0.534,0.910,-4.115,4.992,1.344
5938,10.179,-0.031,0.996,-3.916,5.015,-2.504
5988,10.531,-0.065,1.339,-3.275,4.534,-5.626
6038,10.181,0.378,0.886,1.847,-3.756,0.954
6088,9.817,-0.038,1.039,12.702,1.504,4.351
6138,10.040,-0.513,0.975,9.176,0.275,2.947
6189,9.604,-0.517,1.365,-2.634,8.679,7.947
6238,10.265,-0.395,1.114,-5.718,4.840,3.794
6288,10.318,-0.508,1.219,-1.916,0.962,-2.298
6338,10.145,-0.182,1.118,-5.870,2.382,-2.481
6388,10.181,-0.084,1.207,-4.023,0.565,-0.870
6438,10.081,-0.445,1.200,-6.550,-1.275,3.763
6489,9.889,-0.393,1.056,-6.275,3.397,-2.924
6538,9.985,-0.386,1.068,-5.412,1.954,-0.870
6588,10.200,-0.527,1.102,-6.832,-1.878,1.748
6638,9.853,-0.187,1.087,-5.099,2.748,-6.649
6688,10.394,-0.584,1.035,-5.084,-1.260,6.031
6738,9.994,-0.364,1.023,-9.099,-4.550,1.031
6789,10.330,-0.620,1.166,-6.344,4.168,-3.802
6838,9.879,-0.419,0.960,-8.336,-3.725,2.740
6888,10.023,-0.326,0.901,-6.794,-1.237,-2.115
6938,9.968,-0.383,1.083,-8.580,1.374,1.573
6988,10.208,-0.419,1.047,-6.519,-0.702,-0.466
7038,10.050,-0.702,1.027,-13.176,-7.084,3.611
7089,10.141,-0.304,0.790,-8.351,-2.534,-0.588
7139,9.918,-0.659,0.680,-12.489,-1.885,2.695
7189,9.958,-0.319,0.829,-10.275,2.656,-4.794
7239,9.978,-0.659,0.678,-2.855,-6.847,-2.168
7289,10.241,-0.304,0.723,-8.359,-9.908,-0.611
7340,10.176,-0.481,0.532,-7.695,-14.489,0.649
7389,9.798,-0.081,0.814,-6.458,-19.397,1.137
7439,10.121,-0.671,0.378,-2.397,-10.534,-8.962
7489,10.325,-0.290,0.616,-6.824,-5.588,2.725
7539,10.224,-0.141,0.625,1.626,-7.557,-8.336
7589,10.121,-0.338,-0.029,-4.756,-11.275,0.641
7640,9.863,-0.426,0.139,-2.916,-12.817,9.092
7689,9.753,-0.649,-0.019,-4.038,-8.366,-4.527
7739,10.457,0.091,-0.077,7.893,-14.580,-7.275
7789,10.138,-0.850,-0.235,-4.107,-17.763,14.931
7839,9.808,0.259,-0.223,4.817,-14.176,-17.527
7889,9.889,-0.560,-0.788,4.924,-16.412,-13.183
7940,10.052,-0.675,-0.903,-7.046,-23.366,-1.931
7989,10.057,-0.347,-0.745,-8.931,-34.893,-5.664
8039,9.889,0.000,-1.018,-8.359,-45.420,-3.061
8089,9.707,0.086,-1.950,-5.611,-56.542,-14.427
8139,9.554,-0.206,-2.345,1.603,-58.687,-14.847
8189,9.367,0.419,-2.685,6.817,-59.420,-20.099
8240,9.381,0.374,-3.537,2.763,-68.214,-22.321
8289,9.408,0.388,-3.765,-4.618,-66.382,-8.473
8339,8.064,0.352,-3.997,-9.229,-66.527,-10.580
8389,9.029,0.208,-4.503,-7.374,-64.664,1.916
8439,8.191,0.278,-5.334,-9.855,-59.435,10.206
8489,7.583,-0.558,-6.706,-4.321,-76.718,12.145
8540,7.173,-0.096,-5.700,-6.847,-76.863,13.824
8590,6.773,0.419,-6.711,-16.466,-68.214,5.267
8640,6.572,0.213,-6.577,-13.061,-58.824,6.802
8690,6.392,0.199,-7.099,-4.557,-54.542,12.374
8740,5.532,0.158,-7.195,-5.672,-48.061,6.763
8791,5.336,0.201,-8.426,-5.435,-45.344,7.107
8840,4.709,-0.091,-7.657,-10.496,-62.374,8.794
8890,4.759,0.043,-8.416,3.313,-53.092,12.863
8940,3.667,-0.024,-7.939,-3.718,-54.313,9.198
8990,3.765,-0.228,-8.972,8.420,-56.840,17.511
9040,2.857,-0.084,-8.953,6.832,-64.672,15.672
9091,3.102,-0.903,-8.785,9.771,-53.656,16.290
9143,1.897,-0.596,-8.919,5.718,-33.595,10.496
9193,2.160,-0.515,-8.953,2.664,-34.824,8.046
9243,1.871,-0.675,-8.775,-1.725,-18.870,6.389
9293,1.480,-0.683,-8.751,-0.718,-26.863,4.244
9344,1.018,-0.644,-9.173,0.206,-27.092,4.527
9394,1.063,-0.730,-9.262,-1.221,-22.840,3.450
9443,1.037,-0.757,-9.135,0.977,-7.198,-0.641
9493,1.051,-0.726,-9.185,-3.947,-5.473,1.374
9543,0.575,-0.798,-9.192,1.763,-4.664,-0.626
9593,0.917,-0.996,-9.022,-2.557,-1.084,0.496
9644,0.654,-0.874,-9.039,1.168,1.076,0.664
9694,0.874,-0.881,-9.159,-3.023,3.878,-1.924
9743,0.728,-0.709,-8.874,-1.031,6.779,0.145
9793,0.934,-0.905,-9.151,-1.794,7.511,-2.206
9843,1.051,-0.793,-9.058,-4.550,8.137,-0.687
9893,1.085,-0.771,-8.950,-0.229,14.496,-3.137
9944,1.186,-0.826,-9.226,1.275,24.000,-2.191
9993,1.365,-0.901,-8.986,0.145,22.725,-2.962
10043,1.832,-1.042,-9.096,-1.511,20.427,-2.496
10093,1.636,-1.265,-9.226,1.267,22.298,-0.519
10143,1.909,-0.968,-8.804,0.679,26.321,-0.580
10193,2.160,-1.430,-8.756,4.069,33.832,0.481
10244,2.201,-0.627,-9.022,-3.092,33.031,7.069
10293,2.620,-1.221,-9.029,-2.397,31.901,1.748
10343,3.152,-1.262,-8.529,-0.855,23.786,1.046
10393,3.262,-1.233,-8.385,-11.511,39.573,4.504
10443,3.528,-1.245,-8.474,-2.519,52.702,0.557
10493,3.969,-1.004,-8.325,-2.756,51.328,0.336
10544,4.378,-1.427,-8.172,-4.626,50.863,-4.160
10593,4.773,-1.150,-8.047,2.137,42.305,-0.954
10643,4.903,-1.339,-7.762,9.046,39.099,1.008
10693,5.446,-1.662,-7.446,9.359,36.992,-0.153
10743,5.394,-1.245,-7.702,1.107,23.290,-1.458
10793,5.796,-1.595,-7.302,2.595,18.290,2.244
10844,5.930,-1.425,-7.290,11.992,26.298,2.252
10893,5.935,-1.724,-6.764,14.176,45.771,-2.389
10943,6.352,-1.787,-7.044,8.237,53.481,-12.321
10993,6.577,-1.770,-6.646,8.878,43.290,-9.885
11043,6.905,-1.772,-6.277,5.702,36.389,-6.992
11094,7.128,-1.851,-6.083,6.702,42.366,-7.924
11144,7.554,-2.084,-5.473,9.832,50.870,-5.435
11193,7.741,-1.739,-4.986,14.023,76.565,-4.748
11243,8.268,-1.777,-5.006,7.985,78.305,-14.489
11293,8.696,-1.902,-4.256,11.183,74.069,-9.878
11343,8.692,-1.947,-4.141,4.405,54.115,-10.153
11394,8.926,-1.835,-3.621,1.061,37.168,-10.962
11444,9.082,-1.595,-3.281,0.191,30.588,-4.160
11494,9.226,-1.748,-2.819,1.527,28.412,-3.176
11544,9.302,-1.801,-2.419,2.244,29.611,-4.893
11594,9.412,-1.746,-2.369,3.656,47.885,-10.466
11644,9.707,-1.588,-1.794,6.458,57.137,-14.359
11695,9.537,-1.540,-1.399,2.466,56.664,-15.565
11744,9.951,-1.413,-0.929,4.588,56.099,-14.099
11794,9.714,-1.312,-0.829,1.290,45.427,-16.908
11844,9.908,-1.214,-0.388,-1.260,28.275,-11.557
11894,10.023,-1.195,0.096,-0.763,32.252,-5.191
11944,9.908,-0.968,-0.189,-2.534,21.634,-8.496
11995,10.050,-0.987,0.759,-0.878,25.366,-7.710
12044,10.258,-1.099,0.611,-1.069,28.481,-10.725
12094,9.951,-0.889,0.917,-2.740,26.542,-6.855
12144,10.038,-0.774,0.831,-1.664,17.550,-7.824
12194,9.899,-0.790,1.116,-1.153,7.847,-3.863
12244,9.966,-0.577,0.948,2.107,-4.282,-4.489
12295,10.315,-0.977,0.941,-3.328,-8.313,5.855
12344,9.944,-0.568,0.865,3.443,-23.748,0.832
12394,10.028,-1.054,1.320,0.351,-2.550,0.924
12444,10.157,-0.726,1.023,0.931,6.924,-1.183
12494,10.255,-1.078,0.972,-2.153,1.893,0.893
12545,10.119,-0.783,0.836,-5.244,1.168,1.756
12595,10.160,-0.896,1.078,-4.450,0.252,-0.359
12644,10.042,-0.754,0.944,-1.466,0.092,1.099
12694,10.033,-0.836,0.965,-2.336,-0.450,1.695
12744,10.028,-1.013,1.083,-2.534,2.748,-0.046
12794,10.028,-1.049,0.965,-2.527,0.954,0.969
12845,9.923,-0.829,0.980,-2.802,-0.710,0.206
12895,9.925,-0.975,0.929,-4.580,6.069,2.824
12945,10.002,-1.004,1.087,-3.168,1.878,-1.771
12995,10.291,-0.946,0.654,-5.489,-4.908,6.702
13045,9.803,-1.035,1.284,4.466,29.115,6.420
13095,9.896,-1.027,1.348,0.160,31.748,16.267
13146,10.272,-1.712,2.136,12.840,42.649,8.702
13195,10.023,-1.133,2.405,17.214,66.832,11.466
13245,10.035,-1.317,2.951,26.710,62.206,7.809
13295,10.172,-1.423,3.312,25.733,70.855,13.198
13345,9.918,-1.662,3.930,63.374,118.122,10.779
13395,9.089,-1.442,4.951,39.046,100.244,14.992
13446,8.397,-1.061,6.361,40.504,95.840,9.237
13495,7.745,-0.572,5.243,20.473,84.458,10.634
13545,7.875,-1.387,7.365,0.634,46.763,0.855
13595,7.683,-1.090,7.425,-3.427,89.351,10.664
13645,6.802,-0.817,7.449,-8.099,64.206,4.374
13696,6.838,-1.298,8.433,-1.611,84.603,8.000
13746,5.894,-1.207,8.395,-14.137,63.206,1.061
13795,5.693,-1.344,8.878,-17.740,40.916,5.847
13845,5.585,-1.363,8.948,-15.863,49.802,3.901
13895,4.903,-1.607,9.226,-7.221,69.000,4.038
13945,4.349,-1.523,9.163,-6.534,51.588,3.137
13996,3.995,-1.782,9.827,-8.870,40.664,-0.885
14046,4.218,-1.554,9.757,-8.947,40.718,1.557
14095,3.727,-2.244,10.145,-9.466,37.878,3.015
14145,3.317,-1.693,9.899,-1.137,35.397,2.466
14195,2.603,-1.621,9.697,-10.237,27.137,1.069
14245,3.018,-1.691,9.875,-13.214,18.023,-1.176
14296,2.709,-1.911,10.279,-14.977,32.733,6.916
14345,2.136,-2.081,10.088,-6.244,24.802,1.244
14395,2.364,-2.132,10.648,-4.588,22.939,2.122
14445,2.117,-2.160,10.373,-6.237,18.076,1.107
14495,1.813,-2.055,10.373,-3.122,15.450,-2.061
14545,1.847,-2.117,10.327,-5.641,12.573,-1.084
14596,1.621,-2.239,10.483,-7.145,8.275,0.107
14645,1.643,-2.088,10.332,-7.962,2.626,-1.542
14695,1.715,-2.223,10.564,-7.275,-3.168,0.298
14745,1.832,-2.191,10.356,-8.000,-15.611,0.763
14795,1.873,-2.230,9.942,-4.298,-29.962,-0.206
14845,2.263,-2.244,10.220,-2.802,-38.733,-2.328
14896,2.582,-2.326,10.061,3.756,-53.656,-8.389
14945,3.032,-2.026,9.824,-4.908,-53.809,-7.824
14995,3.880,-2.029,9.700,-7.565,-56.603,-2.267
15045,3.777,-2.196,9.717,0.412,-56.023,-8.710
15095,4.479,-2.074,9.616,0.885,-49.206,-7.947
15145,4.699,-2.160,9.199,-2.076,-64.603,-7.313
15196,5.166,-2.041,9.027,-1.863,-67.840,-12.588
15245,6.210,-2.053,8.725,-12.550,-87.221,-16.809
15295,6.263,-1.971,8.313,-0.183,-76.527,-15.771
15345,6.785,-1.868,7.705,-2.092,-53.718,-11.298
15395,7.202,-1.770,7.417,-14.649,-53.160,-3.084
15446,7.544,-1.765,6.799,-7.130,-70.198,-9.214
15496,8.078,-1.789,6.895,-12.763,-60.939,-6.328
15545,8.153,-1.854,6.316,-7.718,-43.244,-1.450
15595,8.239,-1.765,5.750,-9.718,-50.740,-5.992
15645,8.962,-1.839,5.664,-7.733,-53.618,-7.817
15695,8.493,-1.861,5.097,-11.763,-52.947,-1.160
15746,9.297,-1.921,4.670,-4.290,-62.267,-8.481
15796,9.137,-1.973,4.515,-11.458,-46.191,-2.565
15846,9.714,-1.866,3.818,-9.687,-43.969,-8.137
15896,9.587,-1.765,3.470,-6.924,-48.641,-10.061
15946,9.736,-1.734,3.013,-18.435,-47.168,-12.130
15996,9.621,-1.650,2.620,-10.786,-51.977,-14.321
16047,9.729,-1.425,1.973,-23.168,-56.366,-5.733
16096,10.126,-1.605,1.993,-4.290,-32.672,-11.580
16146,10.035,-1.739,1.962,-6.908,-10.878,-8.679
16196,9.997,-1.459,1.375,2.985,10.924,-2.817
16246,9.846,-1.478,1.645,-1.725,2.771,-2.183
16296,9.932,-1.293,1.408,-3.924,8.878,-0.878
16347,10.061,-1.320,1.617,1.595,2.855,-1.321
16396,9.872,-1.504,1.842,-4.481,2.557,0.511
16446,9.860,-1.310,1.636,-3.328,0.053,0.466
16496,9.903,-1.624,1.691,-2.595,-0.649,2.924
16546,9.865,-1.523,1.768,-4.053,0.969,4.710
16596,10.038,-1.492,1.756,-2.756,-3.015,2.916
16647,9.870,-1.595,1.643,-5.321,0.733,10.366
16696,10.258,-1.528,1.360,6.450,2.550,20.550
16746,9.925,-2.036,1.818,-4.214,-2.305,44.992
16796,9.520,-2.177,1.384,-2.603,-6.611,42.817
16846,9.604,-2.852,1.835,3.710,-2.191,50.511
16897,9.216,-3.221,1.435,-7.573,4.252,44.939
16947,9.436,-3.463,1.552,-8.214,4.794,46.595
16996,9.575,-4.086,1.983,-6.382,14.359,41.435
17046,9.024,-4.165,1.739,-0.802,15.634,32.458
17096,8.876,-5.300,1.403,4.649,26.718,52.542
17146,8.751,-5.113,1.641,-6.053,8.695,61.763
17197,8.213,-5.269,1.880,-18.992,-20.611,55.015
17247,8.409,-5.906,1.978,-13.267,-5.527,50.595
17297,7.738,-6.083,1.669,-7.076,-5.092,41.023
17347,7.892,-6.553,1.655,-10.756,4.443,50.664
17397,7.305,-6.759,1.688,-3.641,5.687,45.084
17447,7.336,-7.415,1.756,-9.168,1.924,39.282
17498,6.783,-7.180,1.504,-2.290,-1.481,40.519
17547,6.756,-7.731,1.504,-7.412,-0.229,42.534
17597,6.285,-7.643,1.758,-3.115,-0.130,47.107
17647,6.071,-7.868,1.267,-3.496,-3.443,45.702
17697,5.889,-8.399,1.770,-10.092,2.863,35.702
17747,5.580,-8.361,1.631,-1.275,14.779,32.656
17798,4.965,-8.529,2.019,6.870,34.611,38.641
17847,4.867,-8.766,1.679,-11.084,23.863,43.443
17897,4.610,-9.053,2.213,-7.962,13.656,38.672
17947,4.371,-8.936,1.746,-4.336,16.725,26.687
17997,4.007,-9.132,2.134,-4.099,12.557,19.298
18048,4.124,-9.046,1.837,-4.664,13.985,19.679
18098,3.789,-9.233,2.120,-2.672,9.153,16.634
18147,3.870,-9.173,2.235,-4.992,7.855,18.672
18197,3.633,-9.120,2.002,-4.511,6.252,9.504
18247,3.535,-9.377,2.242,-3.840,1.031,-0.038
18297,3.542,-9.271,2.247,-1.267,1.176,-3.557
18348,3.322,-9.408,2.141,-3.969,2.183,0.992
18398,3.418,-9.218,2.098,-3.351,3.473,0.252
18447,3.454,-9.326,2.163,-2.847,1.527,-3.412
18497,3.494,-9.420,2.244,-3.450,-0.611,-3.237
18547,3.425,-9.353,2.361,-2.626,3.435,-3.611
18597,3.696,-9.175,2.213,-0.954,5.947,-15.504
18648,3.619,-9.139,2.096,-1.214,1.206,-18.298
18697,3.875,-9.044,2.333,0.489,0.305,-25.679
18747,4.060,-9.245,2.299,6.420,8.748,-29.298
18797,4.333,-8.878,2.393,4.397,6.382,-28.023
18847,4.752,-9.024,2.778,15.679,0.397,-62.206
18897,4.694,-8.426,2.714,18.481,17.985,-48.206
18948,5.365,-8.500,2.749,8.336,7.015,-42.229
19063,5.846,-7.477,2.855,-25.817,-4.115,-55.099
19113,6.517,-7.750,2.419,-25.359,-7.206,-58.023
19164,6.874,-7.276,2.158,-10.450,-8.061,-66.634
19213,7.391,-7.609,2.558,0.099,-11.481,-77.290
19263,7.489,-6.593,2.215,-5.366,-1.611,-56.374
19313,8.110,-6.287,2.117,0.198,5.511,-47.489
19363,8.069,-5.664,2.167,-5.008,-5.489,-41.924
19414,8.457,-5.784,2.345,2.221,-4.687,-42.763
19464,8.646,-5.389,2.177,5.687,-5.275,-32.557
19513,8.538,-4.989,1.985,0.695,-15.611,-36.817
19563,8.900,-4.979,2.081,-2.626,-14.649,-39.382
19613,9.101,-4.280,1.825,1.198,-13.275,-47.160
19663,9.403,-4.445,2.007,-1.420,-14.038,-26.389
19714,9.063,-3.660,1.863,1.779,-10.924,-26.344
19764,9.408,-3.602,1.609,6.527,-7.725,-37.084
19814,9.403,-3.348,1.739,5.809,-0.832,-28.244
19864,9.307,-3.343,1.770,8.015,-2.534,-33.527
19914,9.623,-2.936,1.629,6.031,0.214,-36.916
19964,9.726,-2.924,1.751,1.023,0.969,-26.664
20015,9.666,-2.429,1.950,0.992,-1.374,-22.229
20064,9.817,-1.861,1.811,3.427,-2.863,-32.473
20114,9.726,-2.223,1.734,2.786,0.870,-50.603
20164,10.366,-1.657,1.904,0.847,6.336,-38.855
20214,9.915,-1.344,1.636,-6.504,-3.649,-20.664
20264,9.930,-0.857,1.808,-1.000,-2.351,-19.298
20315,9.947,-1.169,1.847,-2.107,2.115,-12.641
20364,10.040,-0.541,1.760,0.832,0.611,-9.061
20414,9.856,-0.719,1.710,-1.168,-5.481,-13.626
20464,9.879,-0.831,1.832,-6.824,2.908,-1.031
20514,10.105,-0.695,1.794,-2.542,1.473,-4.931
20564,9.985,-0.860,1.921,-5.031,0.992,-8.840
20615,10.023,-0.627,1.787,-1.664,-3.015,-7.130
20664,9.982,-0.498,1.751,-1.939,-2.779,-5.504
20714,9.958,-0.630,1.871,-1.885,1.366,-9.656
20764,10.193,-0.489,1.712,-2.260,0.603,-3.473
20814,9.970,-0.472,1.849,-4.260,0.496,-3.061
20865,10.059,-0.366,1.835,0.084,-0.458,-12.565
20915,10.143,-0.146,1.791,1.153,-0.198,-22.885
20964,10.155,0.323,1.880,4.336,-5.611,-30.015
21014,9.951,0.237,1.626,4.221,-5.557,-37.221
21064,10.121,0.812,1.550,9.603,-5.237,-51.489
21114,10.339,0.307,1.530,0.740,-6.321,-35.954
21165,9.542,1.550,1.174,5.595,-4.649,-32.939
21215,10.169,1.106,1.265,-1.847,0.855,-36.099
21265,9.817,1.921,1.516,4.611,0.534,-42.656
21315,9.949,1.777,1.300,-6.015,3.000,-47.779
21365,9.309,3.188,1.406,1.954,6.107,-39.908
21415,9.669,2.505,1.542,4.069,5.771,-76.466
21466,9.360,3.715,1.578,-0.489,10.710,-54.298
21515,9.288,3.983,1.552,2.504,6.290,-48.015
21565,8.761,4.862,1.571,-1.664,0.191,-44.084
21615,8.924,4.615,1.629,3.733,6.031,-59.603
21665,8.368,5.358,1.502,0.481,0.534,-42.489
21715,8.215,5.197,1.684,0.779,6.130,-44.824
21766,8.124,5.937,1.789,2.221,7.290,-42.267
21815,7.889,5.796,1.665,1.947,7.290,-58.137
21865,7.343,6.182,1.653,1.084,10.924,-46.824
21915,7.458,6.893,1.775,-1.206,10.344,-47.901
21965,6.646,7.178,2.000,8.374,11.092,-66.687
22016,6.881,7.183,1.703,1.450,14.931,-63.038
22066,5.851,7.592,1.650,-7.183,8.534,-19.458
22115,5.839,7.987,1.887,1.817,4.977,-32.847
22165,5.772,8.019,1.830,-0.511,5.824,-17.847
22215,5.940,7.937,2.000,4.435,8.511,-43.115
22265,5.283,8.392,1.995,9.695,8.206,-48.809
22316,5.444,8.110,1.794,4.015,-4.710,-51.321
22366,4.050,8.749,1.803,-4.015,-3.046,-13.847
22415,4.213,8.675,1.686,-0.023,1.023,-9.313
22465,4.622,8.909,1.863,-3.634,1.618,-7.015
22515,4.582,8.596,1.734,-0.252,2.435,-7.573
22565,4.579,8.490,1.732,-5.588,-2.435,-4.160
22616,4.464,8.495,1.633,-2.107,0.405,2.901
22665,4.558,8.519,1.815,-13.160,-1.321,16.550
22715,4.771,8.598,1.784,-9.382,1.702,24.389
22765,4.951,8.651,1.938,-8.198,1.802,37.481
22815,5.219,8.586,2.165,-9.122,7.092,36.847
22865,5.255,8.112,1.686,-5.344,4.527,25.710
22916,6.016,7.731,2.120,1.084,9.000,37.382
22965,6.217,7.657,2.263,-19.824,3.573,62.137
23015,6.095,7.757,1.887,-14.336,-4.160,73.740
23065,6.912,6.934,2.244,-21.840,-1.000,61.496
23115,7.089,6.603,2.074,-11.328,-4.534,50.962
23165,7.556,5.892,2.381,-30.863,-7.427,66.519
23216,7.928,5.911,2.194,-28.015,-10.771,68.969
23265,8.215,4.871,2.187,-27.290,-9.924,65.504
23315,9.020,5.018,2.867,-24.382,-10.885,58.840
23365,8.931,4.627,2.467,-15.260,-12.893,34.137
23415,8.818,4.153,2.326,-18.802,-11.733,42.687
23465,9.175,3.772,2.278,-18.412,-8.580,47.382
23516,9.238,3.327,2.373,-14.237,-6.260,40.840
23565,9.640,2.814,2.093,-15.603,-14.756,47.038
23615,9.460,2.565,2.223,-13.733,-6.176,33.374
23665,9.939,2.287,2.048,-9.626,-8.397,34.954
23715,10.081,2.048,2.110,-19.771,-22.962,49.931
23766,9.729,1.633,1.897,-10.725,-16.023,59.969
23816,9.578,0.910,1.753,-14.855,-15.649,59.824
23865,10.335,0.242,1.847,-16.740,-4.115,64.481
23915,9.693,0.086,1.595,-12.130,-2.344,21.275
23965,9.911,-0.168,1.681,-10.328,5.885,16.924
24015,10.071,-0.275,1.387,-11.405,4.000,17.947
24066,10.220,-0.395,1.729,-3.603,8.420,13.588
24116,10.296,-0.259,1.751,-3.000,2.695,7.115
24166,10.038,-0.390,1.854,-1.985,3.298,-1.740
24216,9.978,-0.417,1.693,2.939,6.290,-9.046
24266,10.327,-0.460,1.930,2.786,2.969,-0.733
24316,9.997,-0.821,1.921,-0.076,-4.603,3.282
24367,9.472,-0.877,1.842,-3.595,9.557,-11.206
24416,10.076,-0.642,1.863,-8.046,4.427,-12.740
24466,10.208,-0.326,2.072,-6.466,1.786,-3.588
24516,9.978,-0.043,1.906,-3.198,4.435,-4.290
24566,10.097,-0.333,1.993,-1.626,8.282,-7.061
24616,10.112,-0.352,2.081,-6.733,0.931,-3.939
24667,10.265,0.153,1.926,-1.954,7.985,-3.595
24716,9.879,-0.467,2.110,-2.458,5.397,-6.473
24766,9.733,-0.666,2.100,-5.924,7.000,-10.420
24816,9.942,-0.455,2.182,-3.557,-2.092,-4.565
24866,9.769,0.029,2.055,-2.740,2.344,-3.924
24916,10.164,-0.125,2.318,-2.344,1.565,-0.740
24967,10.224,-0.201,2.084,-4.336,-0.031,-3.878
25016,9.681,-0.129,2.254,-4.634,3.664,-0.817
25066,9.947,0.048,1.983,-5.374,1.191,-6.412
25116,9.987,0.160,2.340,-0.687,0.947,-5.641
25166,10.430,-0.055,2.172,-3.489,-0.809,-5.489
25217,9.800,0.086,2.139,-4.084,0.344,-6.504
25267,10.255,0.311,2.311,-3.275,0.076,-7.534
25316,9.927,0.048,2.220,-3.573,0.840,-10.824
25366,10.057,0.321,2.134,-2.595,0.809,-7.527
25416,9.913,0.103,2.084,-4.924,-1.176,-5.191
25466,10.232,0.448,2.304,-6.672,0.374,-4.069
25517,9.858,0.268,2.263,-8.588,1.359,-2.260
25567,9.786,0.295,2.203,-6.023,5.809,-3.954
25617,10.100,0.352,2.134,-6.740,3.084,-6.420
25667,10.107,0.462,2.591,-6.061,0.679,-10.733
25717,10.026,0.582,2.302,-7.069,4.534,-5.557
25767,9.824,0.783,2.244,-4.863,-1.664,-8.122
25818,10.011,0.891,2.096,-4.351,0.038,-4.328
25867,9.829,0.493,2.326,-2.458,-0.290,-7.824
25917,10.047,0.630,2.263,-7.672,0.092,-2.527
25967,9.484,0.704,2.369,0.214,-2.885,-16.489
26017,9.949,0.369,2.285,-3.580,-0.641,-2.076
26067,9.750,0.891,2.139,-2.420,0.634,-5.916
26118,10.167,1.358,2.230,-4.389,3.023,-8.824
